millis,roll,pitch,yaw,AccX,AccY,AccZ,GyroX,GyroY,GyroZ,CurrentTemp,CurrentPres,altitude,altitude_lissee,max_altitude,phase_vol,source,time_sec,alt
355458.0,2.06,0.16,1.81,-8.99,0.18,-2.51,-0.01,0.03,-0.0,16.32,101362.14,3.48,3.46,3.68,0.0,vol 6,-0.992,0.0124137931034487
355468.0,2.06,0.16,1.81,-8.99,0.17,-2.51,-0.02,0.03,-0.0,16.32,101362.14,3.48,3.47,3.68,0.0,vol 6,-0.982,0.0124137931034487
355478.0,2.06,0.16,1.81,-8.99,0.18,-2.5,-0.02,0.03,-0.0,16.32,101361.97,3.5,3.47,3.68,0.0,vol 6,-0.972,0.0324137931034487
355488.0,2.06,0.16,1.81,-8.99,0.18,-2.51,-0.02,0.03,-0.01,16.32,101361.97,3.5,3.47,3.68,0.0,vol 6,-0.962,0.0324137931034487
355498.0,2.06,0.16,1.81,-8.99,0.19,-2.5,-0.02,0.03,-0.01,16.32,101361.97,3.5,3.47,3.68,0.0,vol 6,-0.952,0.0324137931034487
355507.0,2.06,0.16,1.81,-8.99,0.19,-2.5,-0.02,0.03,-0.01,16.32,101361.97,3.5,3.48,3.68,0.0,vol 6,-0.943,0.0324137931034487
355517.0,2.06,0.16,1.81,-8.99,0.19,-2.49,-0.02,0.03,-0.01,16.32,101361.97,3.5,3.48,3.68,0.0,vol 6,-0.933,0.0324137931034487
355527.0,2.06,0.16,1.81,-8.99,0.19,-2.49,-0.02,0.04,-0.01,16.32,101361.97,3.5,3.48,3.68,0.0,vol 6,-0.923,0.0324137931034487
355537.0,2.06,0.16,1.81,-8.99,0.18,-2.51,-0.03,0.04,-0.01,16.32,101361.97,3.5,3.48,3.68,0.0,vol 6,-0.913,0.0324137931034487
355547.0,2.05,0.16,1.81,-8.98,0.16,-2.51,-0.03,0.04,-0.01,16.32,101361.81,3.51,3.48,3.68,0.0,vol 6,-0.903,0.0424137931034485
355557.0,2.05,0.16,1.81,-8.98,0.15,-2.53,-0.02,0.04,-0.01,16.32,101361.81,3.51,3.49,3.68,0.0,vol 6,-0.893,0.0424137931034485
355567.0,2.05,0.15,1.81,-8.98,0.15,-2.54,-0.01,0.04,-0.01,16.32,101361.81,3.51,3.49,3.68,0.0,vol 6,-0.883,0.0424137931034485
355577.0,2.05,0.15,1.81,-8.98,0.16,-2.55,-0.01,0.04,-0.01,16.32,101361.81,3.51,3.49,3.68,0.0,vol 6,-0.873,0.0424137931034485
355587.0,2.05,0.15,1.81,-8.98,0.16,-2.54,-0.01,0.03,-0.01,16.32,101361.81,3.51,3.49,3.68,0.0,vol 6,-0.863,0.0424137931034485
355597.0,2.06,0.15,1.81,-8.98,0.18,-2.54,-0.01,0.03,-0.0,16.32,101361.81,3.51,3.5,3.68,0.0,vol 6,-0.853,0.0424137931034485
355607.0,2.06,0.15,1.81,-8.98,0.19,-2.54,-0.02,0.03,-0.0,16.32,101361.81,3.51,3.5,3.68,0.0,vol 6,-0.843,0.0424137931034485
355617.0,2.06,0.15,1.81,-8.98,0.2,-2.54,-0.02,0.03,-0.0,16.32,101361.81,3.51,3.5,3.68,0.0,vol 6,-0.833,0.0424137931034485
355626.0,2.06,0.16,1.81,-8.99,0.19,-2.53,-0.02,0.03,-0.0,16.32,101361.81,3.51,3.5,3.68,0.0,vol 6,-0.824,0.0424137931034485
355637.0,2.06,0.16,1.81,-8.98,0.18,-2.53,-0.02,0.03,-0.0,16.32,101361.81,3.51,3.5,3.68,0.0,vol 6,-0.813,0.0424137931034485
355647.0,2.05,0.16,1.81,-8.98,0.17,-2.54,-0.02,0.03,-0.0,16.32,101361.81,3.51,3.5,3.68,0.0,vol 6,-0.803,0.0424137931034485
355657.0,2.05,0.16,1.81,-8.99,0.15,-2.54,-0.02,0.03,-0.0,16.32,101361.97,3.5,3.5,3.68,0.0,vol 6,-0.793,0.0324137931034487
355667.0,2.05,0.16,1.81,-8.99,0.15,-2.54,-0.02,0.03,-0.0,16.32,101361.97,3.5,3.5,3.68,0.0,vol 6,-0.783,0.0324137931034487
355676.0,2.05,0.16,1.81,-8.99,0.15,-2.54,-0.01,0.03,-0.0,16.32,101361.97,3.5,3.5,3.68,0.0,vol 6,-0.774,0.0324137931034487
355686.0,2.05,0.16,1.81,-8.98,0.16,-2.53,-0.01,0.03,-0.0,16.32,101361.97,3.5,3.5,3.68,0.0,vol 6,-0.764,0.0324137931034487
355696.0,2.05,0.16,1.81,-8.98,0.17,-2.52,-0.0,0.03,-0.0,16.32,101362.38,3.46,3.5,3.68,0.0,vol 6,-0.754,-0.0075862068965513
355706.0,2.06,0.17,1.81,-8.98,0.2,-2.5,-0.0,0.03,-0.0,16.32,101362.38,3.46,3.49,3.68,0.0,vol 6,-0.744,-0.0075862068965513
355716.0,2.06,0.17,1.81,-8.98,0.21,-2.49,-0.01,0.03,-0.0,16.32,101362.38,3.46,3.49,3.68,0.0,vol 6,-0.734,-0.0075862068965513
355726.0,2.06,0.17,1.81,-8.98,0.21,-2.49,-0.01,0.03,-0.0,16.32,101362.38,3.46,3.49,3.68,0.0,vol 6,-0.724,-0.0075862068965513
355735.0,2.06,0.17,1.81,-8.98,0.2,-2.49,-0.02,0.03,-0.0,16.32,101361.97,3.5,3.49,3.68,0.0,vol 6,-0.715,0.0324137931034487
355746.0,2.06,0.17,1.81,-8.98,0.19,-2.49,-0.03,0.03,-0.0,16.32,101361.97,3.5,3.49,3.68,0.0,vol 6,-0.704,0.0324137931034487
355756.0,2.05,0.17,1.81,-8.99,0.17,-2.49,-0.02,0.03,-0.0,16.32,101361.97,3.5,3.49,3.68,0.0,vol 6,-0.694,0.0324137931034487
355765.0,2.05,0.17,1.81,-8.98,0.16,-2.5,-0.02,0.03,-0.0,16.32,101361.97,3.5,3.49,3.68,0.0,vol 6,-0.685,0.0324137931034487
355775.0,2.05,0.17,1.81,-8.99,0.16,-2.51,-0.01,0.03,-0.0,16.32,101362.21,3.48,3.49,3.68,0.0,vol 6,-0.675,0.0124137931034487
355785.0,2.05,0.17,1.81,-8.99,0.17,-2.51,-0.01,0.03,-0.0,16.32,101362.21,3.48,3.49,3.68,0.0,vol 6,-0.665,0.0124137931034487
355795.0,2.05,0.17,1.81,-8.99,0.17,-2.5,-0.01,0.03,-0.0,16.32,101362.21,3.48,3.49,3.68,0.0,vol 6,-0.655,0.0124137931034487
355805.0,2.05,0.17,1.81,-8.99,0.18,-2.5,-0.02,0.03,-0.0,16.32,101362.21,3.48,3.49,3.68,0.0,vol 6,-0.645,0.0124137931034487
355815.0,2.05,0.17,1.81,-8.99,0.18,-2.5,-0.02,0.03,-0.0,16.32,101362.21,3.48,3.48,3.68,0.0,vol 6,-0.635,0.0124137931034487
355825.0,2.06,0.17,1.81,-8.98,0.19,-2.5,-0.02,0.03,-0.0,16.32,101362.21,3.48,3.48,3.68,0.0,vol 6,-0.625,0.0124137931034487
355835.0,2.06,0.17,1.81,-8.99,0.19,-2.51,-0.01,0.03,-0.01,16.32,101362.21,3.48,3.48,3.68,0.0,vol 6,-0.615,0.0124137931034487
355845.0,2.06,0.17,1.81,-9.0,0.19,-2.51,-0.01,0.04,-0.01,16.32,101362.05,3.49,3.48,3.68,0.0,vol 6,-0.605,0.0224137931034489
355855.0,2.06,0.17,1.81,-8.99,0.19,-2.51,-0.02,0.04,-0.01,16.32,101362.05,3.49,3.48,3.68,0.0,vol 6,-0.595,0.0224137931034489
355865.0,2.05,0.17,1.81,-8.99,0.18,-2.52,-0.03,0.04,-0.01,16.32,101362.05,3.49,3.49,3.68,0.0,vol 6,-0.585,0.0224137931034489
355875.0,2.05,0.17,1.81,-8.99,0.17,-2.52,-0.03,0.03,-0.01,16.32,101362.05,3.49,3.49,3.68,0.0,vol 6,-0.575,0.0224137931034489
355885.0,2.05,0.17,1.81,-8.99,0.15,-2.52,-0.03,0.03,-0.01,16.32,101361.88,3.5,3.49,3.68,0.0,vol 6,-0.565,0.0324137931034487
355895.0,2.04,0.17,1.81,-8.99,0.15,-2.51,-0.02,0.04,-0.01,16.32,101361.88,3.5,3.49,3.68,0.0,vol 6,-0.555,0.0324137931034487
355905.0,2.05,0.17,1.81,-8.99,0.16,-2.51,-0.01,0.04,-0.01,16.32,101361.88,3.5,3.49,3.68,0.0,vol 6,-0.545,0.0324137931034487
355914.0,2.05,0.17,1.81,-8.99,0.17,-2.51,-0.01,0.04,-0.01,16.32,101361.88,3.5,3.49,3.68,0.0,vol 6,-0.536,0.0324137931034487
355924.0,2.05,0.17,1.81,-9.0,0.19,-2.51,-0.01,0.03,-0.01,16.32,101361.88,3.5,3.49,3.68,0.0,vol 6,-0.526,0.0324137931034487
355934.0,2.06,0.17,1.81,-8.99,0.2,-2.51,-0.02,0.03,-0.01,16.32,101361.88,3.5,3.49,3.68,0.0,vol 6,-0.516,0.0324137931034487
355944.0,2.06,0.17,1.81,-8.99,0.2,-2.51,-0.02,0.03,-0.01,16.32,101361.88,3.5,3.5,3.68,0.0,vol 6,-0.506,0.0324137931034487
355955.0,2.05,0.17,1.81,-8.98,0.19,-2.51,-0.03,0.03,-0.01,16.32,101362.11,3.49,3.49,3.68,0.0,vol 6,-0.495,0.0224137931034489
355965.0,2.05,0.17,1.81,-9.0,0.18,-2.52,-0.02,0.03,-0.01,16.32,101362.11,3.49,3.49,3.68,0.0,vol 6,-0.485,0.0224137931034489
355975.0,2.04,0.17,1.81,-9.0,0.15,-2.53,-0.02,0.03,-0.01,16.32,101362.11,3.49,3.49,3.68,0.0,vol 6,-0.475,0.0224137931034489
355985.0,2.04,0.17,1.81,-8.99,0.14,-2.53,-0.02,0.03,-0.01,16.32,101362.11,3.49,3.49,3.68,0.0,vol 6,-0.465,0.0224137931034489
355995.0,2.04,0.17,1.81,-8.99,0.13,-2.54,-0.02,0.03,-0.0,16.32,101362.11,3.49,3.49,3.68,0.0,vol 6,-0.455,0.0224137931034489
356005.0,2.04,0.17,1.81,-8.99,0.13,-2.54,-0.02,0.03,-0.0,16.32,101362.11,3.49,3.49,3.68,0.0,vol 6,-0.445,0.0224137931034489
356014.0,2.04,0.17,1.81,-8.99,0.13,-2.54,-0.01,0.03,-0.0,16.32,101362.11,3.49,3.49,3.68,0.0,vol 6,-0.436,0.0224137931034489
356025.0,2.04,0.17,1.81,-8.99,0.15,-2.54,-0.01,0.03,-0.0,16.32,101362.11,3.49,3.49,3.68,0.0,vol 6,-0.425,0.0224137931034489
356034.0,2.05,0.17,1.81,-8.99,0.17,-2.52,-0.0,0.03,-0.0,16.32,101362.11,3.49,3.49,3.68,0.0,vol 6,-0.416,0.0224137931034489
356045.0,2.05,0.17,1.81,-8.99,0.18,-2.52,-0.0,0.03,-0.0,16.32,101362.11,3.49,3.49,3.68,0.0,vol 6,-0.405,0.0224137931034489
356055.0,2.05,0.17,1.81,-8.99,0.19,-2.51,-0.01,0.03,-0.0,16.32,101362.11,3.49,3.49,3.68,0.0,vol 6,-0.395,0.0224137931034489
356065.0,2.05,0.18,1.81,-8.99,0.19,-2.5,-0.02,0.03,-0.0,16.32,101361.94,3.5,3.49,3.68,0.0,vol 6,-0.385,0.0324137931034487
356075.0,2.05,0.18,1.81,-8.99,0.18,-2.5,-0.03,0.03,0.0,16.32,101361.94,3.5,3.49,3.68,0.0,vol 6,-0.375,0.0324137931034487
356085.0,2.05,0.18,1.81,-8.99,0.17,-2.51,-0.03,0.03,0.0,16.32,101361.94,3.5,3.49,3.68,0.0,vol 6,-0.365,0.0324137931034487
356095.0,2.04,0.18,1.81,-8.98,0.15,-2.51,-0.02,0.03,-0.0,16.32,101361.94,3.5,3.49,3.68,0.0,vol 6,-0.355,0.0324137931034487
356104.0,2.04,0.18,1.81,-8.98,0.14,-2.51,-0.01,0.03,-0.0,16.32,101361.94,3.5,3.49,3.68,0.0,vol 6,-0.346,0.0324137931034487
356114.0,2.04,0.17,1.81,-8.99,0.14,-2.52,-0.0,0.03,-0.0,16.32,101361.94,3.5,3.49,3.68,0.0,vol 6,-0.336,0.0324137931034487
356124.0,2.04,0.18,1.81,-8.99,0.16,-2.52,-0.0,0.03,-0.0,16.32,101361.94,3.5,3.49,3.68,0.0,vol 6,-0.326,0.0324137931034487
356134.0,2.05,0.18,1.81,-8.99,0.18,-2.51,-0.01,0.03,-0.0,16.32,101361.94,3.5,3.49,3.68,0.0,vol 6,-0.316,0.0324137931034487
356144.0,2.06,0.18,1.81,-8.99,0.21,-2.5,-0.01,0.03,-0.0,16.32,101361.94,3.5,3.5,3.68,0.0,vol 6,-0.306,0.0324137931034487
356154.0,2.06,0.18,1.81,-8.99,0.22,-2.5,-0.01,0.03,-0.0,16.32,101361.94,3.5,3.5,3.68,0.0,vol 6,-0.296,0.0324137931034487
356165.0,2.06,0.18,1.81,-8.99,0.23,-2.49,-0.01,0.03,-0.0,16.32,101361.94,3.5,3.5,3.68,0.0,vol 6,-0.285,0.0324137931034487
356175.0,2.06,0.18,1.81,-8.99,0.23,-2.49,-0.02,0.03,-0.01,16.32,101361.94,3.47,3.49,3.68,0.0,vol 6,-0.275,0.0024137931034489
356185.0,2.06,0.18,1.81,-9.0,0.21,-2.49,-0.02,0.03,-0.01,16.32,101362.34,3.47,3.49,3.68,0.0,vol 6,-0.265,0.0024137931034489
356195.0,2.05,0.18,1.81,-9.01,0.19,-2.5,-0.03,0.03,-0.01,16.32,101362.34,3.47,3.49,3.68,0.0,vol 6,-0.255,0.0024137931034489
356205.0,2.06,0.13,1.81,-8.46,0.23,-2.57,-0.02,0.03,-0.01,16.32,101362.34,3.47,3.49,3.68,0.0,vol 6,-0.245,0.0024137931034489
356215.0,2.07,0.13,1.81,-8.77,0.28,-2.65,-0.06,0.04,0.0,16.32,101362.34,3.47,3.48,3.68,0.0,vol 6,-0.235,0.0024137931034489
356225.0,2.05,0.18,1.81,-9.08,0.2,-2.53,-0.04,0.03,0.01,16.32,101362.34,3.47,3.48,3.68,0.0,vol 6,-0.225,0.0024137931034489
356234.0,2.05,0.18,1.81,-9.1,0.2,-2.54,-0.05,0.02,-0.01,16.32,101362.34,3.47,3.48,3.68,0.0,vol 6,-0.216,0.0024137931034489
356244.0,2.04,0.19,1.81,-8.9,0.14,-2.43,-0.07,0.03,-0.01,16.32,101362.34,3.47,3.48,3.68,0.0,vol 6,-0.206,0.0024137931034489
356255.0,2.04,0.19,1.81,-8.93,0.14,-2.48,-0.05,0.03,0.0,16.32,101362.52,3.45,3.48,3.68,0.0,vol 6,-0.195,-0.0175862068965511
356264.0,2.04,0.2,1.81,-9.02,0.15,-2.45,-0.03,0.03,-0.0,16.32,101362.52,3.45,3.47,3.68,0.0,vol 6,-0.186,-0.0175862068965511
356274.0,2.04,0.19,1.81,-9.07,0.17,-2.49,-0.01,0.04,-0.0,16.32,101362.52,3.45,3.47,3.68,0.0,vol 6,-0.176,-0.0175862068965511
356284.0,2.04,0.18,1.81,-8.94,0.16,-2.51,0.02,0.04,-0.0,16.32,101362.52,3.45,3.47,3.68,0.0,vol 6,-0.166,-0.0175862068965511
356294.0,2.06,0.17,1.81,-9.0,0.23,-2.58,0.04,0.04,-0.0,16.32,101362.52,3.45,3.47,3.68,0.0,vol 6,-0.156,-0.0175862068965511
356304.0,2.06,0.17,1.81,-9.08,0.22,-2.58,0.02,0.04,-0.0,16.32,101362.52,3.45,3.47,3.68,0.0,vol 6,-0.146,-0.0175862068965511
356314.0,2.06,0.15,1.81,-8.98,0.23,-2.65,0.0,0.03,-0.0,16.32,101362.52,3.45,3.46,3.68,0.0,vol 6,-0.136,-0.0175862068965511
356324.0,2.05,0.18,1.81,-9.02,0.2,-2.54,-0.03,0.02,-0.01,16.32,101362.68,3.44,3.46,3.68,0.0,vol 6,-0.126,-0.0275862068965513
356333.0,2.05,0.19,1.81,-9.08,0.21,-2.51,-0.05,0.02,-0.0,16.32,101362.68,3.44,3.46,3.68,0.0,vol 6,-0.117,-0.0275862068965513
356343.0,2.05,0.2,1.81,-8.98,0.19,-2.44,-0.08,0.02,-0.0,16.32,101362.68,3.44,3.46,3.68,0.0,vol 6,-0.107,-0.0275862068965513
356354.0,2.04,0.22,1.81,-9.06,0.15,-2.38,-0.11,0.02,-0.01,16.32,101362.68,3.44,3.46,3.68,0.0,vol 6,-0.096,-0.0275862068965513
356364.0,2.06,0.18,1.81,-8.96,0.25,-2.5,-0.12,0.02,-0.0,16.32,101362.68,3.44,3.45,3.68,0.0,vol 6,-0.086,-0.0275862068965513
356374.0,2.09,0.16,1.81,-9.05,0.36,-2.6,-0.13,0.01,-0.0,16.32,101362.68,3.44,3.45,3.68,0.0,vol 6,-0.076,-0.0275862068965513
356384.0,2.1,0.17,1.81,-9.17,0.44,-2.6,-0.18,-0.0,-0.01,16.32,101362.68,3.44,3.45,3.68,0.0,vol 6,-0.066,-0.0275862068965513
356394.0,2.12,0.14,1.81,-9.2,0.53,-2.71,-0.23,-0.03,-0.03,16.32,101362.68,3.44,3.45,3.68,0.0,vol 6,-0.056,-0.0275862068965513
356404.0,2.11,0.18,1.81,-9.73,0.54,-2.67,-0.32,-0.04,-0.03,16.32,101362.52,3.45,3.45,3.68,0.0,vol 6,-0.046,-0.0175862068965511
356414.0,2.13,0.18,1.81,-10.69,0.71,-2.94,-0.48,-0.05,-0.03,16.32,101362.52,3.45,3.45,3.68,0.0,vol 6,-0.036,-0.0175862068965511
356423.0,2.15,0.16,1.81,-11.89,0.93,-3.31,-0.71,0.01,0.0,16.32,101362.52,3.45,3.45,3.68,0.0,vol 6,-0.027,-0.0175862068965511
356433.0,2.12,0.27,1.81,-14.85,1.01,-3.39,-0.98,0.04,0.03,16.32,101362.52,3.45,3.45,3.68,0.0,vol 6,-0.017,-0.0175862068965511
356443.0,2.06,0.42,1.81,-19.97,0.91,-3.29,-1.14,0.06,0.05,16.33,101362.91,3.42,3.45,3.68,0.0,vol 6,-0.007,-0.0475862068965513
356453.0,2.01,0.54,1.81,-27.94,0.73,-3.19,-1.31,0.05,0.06,16.33,101362.91,3.42,3.44,3.68,0.0,vol 6,0.003,-0.0475862068965513
356464.0,1.96,0.63,1.81,-38.49,0.54,-3.02,-1.54,0.03,0.06,16.33,101362.91,3.42,3.44,3.68,0.0,vol 6,0.014,-0.0475862068965513
356474.0,1.92,0.67,1.81,-48.44,0.14,-3.0,-1.86,0.04,0.07,16.33,101362.58,3.45,3.44,3.68,0.0,vol 6,0.024,-0.0175862068965511
356484.0,1.89,0.68,1.81,-56.28,0.1,-3.19,-2.41,0.21,0.12,16.33,101362.58,3.45,3.44,3.68,0.0,vol 6,0.034,-0.0175862068965511
356494.0,1.86,0.7,1.81,-63.84,-0.06,-3.28,-2.97,0.39,0.16,16.33,101362.58,3.45,3.44,3.68,0.0,vol 6,0.044,-0.0175862068965511
356504.0,1.83,0.71,1.81,-71.92,0.11,-3.55,-3.54,0.51,0.19,16.33,101362.58,3.45,3.44,3.68,0.0,vol 6,0.054,-0.0175862068965511
356513.0,1.79,0.72,1.82,-77.77,0.03,-3.74,-3.98,0.5,0.18,16.33,101361.74,3.52,3.45,3.68,0.0,vol 6,0.063,0.0524137931034487
356523.0,1.72,0.74,1.82,-78.36,-0.93,-2.88,-4.25,0.36,0.14,16.33,101361.74,3.52,3.46,3.68,0.0,vol 6,0.073,0.0524137931034487
356534.0,1.65,0.76,1.82,-75.93,-1.9,-1.44,-4.58,0.22,0.22,16.33,101361.74,3.52,3.46,3.68,0.0,vol 6,0.084,0.0524137931034487
356544.0,1.68,0.68,1.82,-76.27,0.79,-4.89,-4.65,-0.15,0.16,16.33,101361.74,3.52,3.47,3.68,0.0,vol 6,0.094,0.0524137931034487
356554.0,1.61,0.71,1.82,-76.49,-0.23,-3.82,-4.27,-0.49,-0.04,16.32,101360.5,3.62,3.48,3.68,0.0,vol 6,0.104,0.1524137931034488
356564.0,1.5,0.69,1.82,-74.43,-2.32,-3.31,-4.33,-0.88,-0.29,16.32,101360.5,3.62,3.5,3.68,0.0,vol 6,0.114,0.1524137931034488
356574.0,1.47,0.71,1.81,-78.91,-2.2,-2.34,-4.34,-1.01,-0.4,16.32,101360.5,3.62,3.51,3.68,0.0,vol 6,0.124,0.1524137931034488
356585.0,1.44,0.72,1.81,-82.76,-1.95,-1.84,-4.11,-1.02,-0.42,16.32,101359.56,3.7,3.53,3.68,0.0,vol 6,0.135,0.2324137931034489
356594.0,1.41,0.73,1.8,-85.94,-1.67,-1.61,-3.96,-1.01,-0.47,16.33,101359.56,3.7,3.54,3.68,0.0,vol 6,0.144,0.2324137931034489
356604.0,1.38,0.72,1.8,-88.37,-1.41,-1.49,-3.89,-0.98,-0.52,16.33,101359.56,3.7,3.56,3.68,0.0,vol 6,0.154,0.2324137931034489
356614.0,1.35,0.72,1.79,-90.37,-1.21,-1.45,-3.87,-0.94,-0.58,16.33,101359.56,3.7,3.57,3.68,0.0,vol 6,0.164,0.2324137931034489
356624.0,1.32,0.72,1.79,-92.12,-1.02,-1.46,-3.89,-0.87,-0.63,16.33,101357.39,3.88,3.6,3.68,0.0,vol 6,0.174,0.4124137931034486
356634.0,1.29,0.71,1.78,-93.61,-0.82,-1.48,-3.95,-0.79,-0.68,16.33,101357.39,3.88,3.63,3.68,0.0,vol 6,0.184,0.4124137931034486
356644.0,1.25,0.71,1.77,-93.93,-0.6,-1.52,-4.03,-0.68,-0.73,16.33,101357.39,3.88,3.66,3.68,0.0,vol 6,0.194,0.4124137931034486
356654.0,1.22,0.7,1.77,-91.54,-0.32,-1.57,-4.15,-0.57,-0.76,16.33,101357.39,3.88,3.68,3.68,0.0,vol 6,0.204,0.4124137931034486
356664.0,1.19,0.69,1.76,-85.78,0.0,-1.63,-4.28,-0.43,-0.77,16.33,101354.88,4.09,3.72,3.72,0.0,vol 6,0.214,0.6224137931034486
356674.0,1.15,0.68,1.75,-78.84,0.33,-1.67,-4.43,-0.3,-0.76,16.33,101354.88,4.09,3.76,3.76,0.0,vol 6,0.224,0.6224137931034486
356684.0,1.12,0.68,1.74,-72.62,0.62,-1.68,-4.58,-0.17,-0.72,16.33,101354.88,4.09,3.79,3.79,0.0,vol 6,0.234,0.6224137931034486
356694.0,1.08,0.67,1.74,-67.15,0.87,-1.68,-4.74,-0.04,-0.64,16.33,101354.88,4.32,3.84,3.84,0.0,vol 6,0.244,0.852413793103449
356704.0,1.05,0.66,1.73,-62.53,1.07,-1.64,-4.9,0.08,-0.54,16.33,101352.03,4.32,3.89,3.89,0.0,vol 6,0.254,0.852413793103449
356715.0,1.0,0.66,1.73,-58.21,1.24,-1.55,-5.08,0.19,-0.41,16.33,101352.03,4.32,3.93,3.93,0.0,vol 6,0.265,0.852413793103449
356727.0,0.95,0.66,1.72,-54.67,1.36,-1.4,-5.26,0.29,-0.26,16.33,101352.03,4.32,3.97,3.97,0.0,vol 6,0.277,0.852413793103449
356738.0,0.9,0.66,1.72,-51.66,1.45,-1.24,-5.45,0.36,-0.09,16.33,101348.84,4.59,4.03,4.03,0.0,vol 6,0.288,1.1224137931034486
356750.0,0.84,0.66,1.72,-49.21,1.49,-1.06,-5.66,0.39,0.09,16.33,101348.84,4.59,4.09,4.09,0.0,vol 6,0.3,1.1224137931034486
356762.0,0.78,0.67,1.73,-47.28,1.5,-0.9,-5.87,0.4,0.25,16.33,101348.84,4.59,4.14,4.14,0.0,vol 6,0.312,1.1224137931034486
356773.0,0.72,0.67,1.73,-45.63,1.48,-0.71,-6.1,0.38,0.41,16.33,101345.16,4.9,4.22,4.22,0.0,vol 6,0.323,1.432413793103449
356784.0,0.65,0.68,1.74,-44.38,1.4,-0.51,-6.31,0.33,0.55,16.33,101345.16,4.9,4.28,4.28,0.0,vol 6,0.334,1.432413793103449
356795.0,0.57,0.69,1.75,-43.21,1.27,-0.3,-6.51,0.25,0.66,16.33,101345.16,4.9,4.35,4.35,0.0,vol 6,0.345,1.432413793103449
356806.0,0.5,0.7,1.75,-42.18,1.08,-0.13,-6.69,0.14,0.76,16.33,101345.16,5.2,4.43,4.43,0.0,vol 6,0.356,1.732413793103449
356815.0,0.42,0.72,1.76,-41.35,0.86,-0.0,-6.84,0.03,0.82,16.33,101341.47,5.2,4.51,4.51,0.0,vol 6,0.365,1.732413793103449
356825.0,0.34,0.73,1.77,-40.68,0.61,0.1,-6.97,-0.11,0.86,16.33,101341.47,5.2,4.58,4.58,0.0,vol 6,0.375,1.732413793103449
356835.0,0.26,0.74,1.78,-40.13,0.36,0.16,-7.09,-0.25,0.85,16.33,101341.47,5.2,4.64,4.64,0.0,vol 6,0.385,1.732413793103449
356845.0,0.18,0.74,1.79,-39.59,0.14,0.19,-7.18,-0.38,0.81,16.33,101336.95,5.58,4.73,4.73,0.0,vol 6,0.395,2.112413793103449
356855.0,0.09,0.74,1.79,-39.01,-0.08,0.17,-7.28,-0.52,0.74,16.33,101336.95,5.58,4.82,4.82,0.0,vol 6,0.405,2.112413793103449
356865.0,0.01,0.73,1.8,-38.36,-0.27,0.06,-7.38,-0.66,0.64,16.33,101336.95,5.58,4.89,4.89,0.0,vol 6,0.415,2.112413793103449
356875.0,-0.07,0.71,1.81,-37.61,-0.44,-0.1,-7.49,-0.79,0.5,16.33,101336.95,5.58,4.96,4.96,0.0,vol 6,0.425,2.112413793103449
356885.0,-0.15,0.69,1.81,-37.06,-0.55,-0.24,-7.57,-0.88,0.38,16.33,101332.27,5.97,5.06,5.06,0.0,vol 6,0.435,2.5024137931034485
356895.0,-0.23,0.67,1.81,-36.52,-0.62,-0.44,-7.67,-0.95,0.22,16.33,101332.27,5.97,5.15,5.15,0.0,vol 6,0.445,2.5024137931034485
356905.0,-0.3,0.65,1.81,-36.13,-0.61,-0.67,-7.77,-1.0,0.05,16.33,101332.27,5.97,5.24,5.24,0.0,vol 6,0.455,2.5024137931034485
356914.0,-0.37,0.63,1.81,-35.91,-0.56,-0.97,-7.89,-1.02,-0.12,16.33,101332.27,5.97,5.31,5.31,0.0,vol 6,0.464,2.5024137931034485
356925.0,-0.44,0.61,1.81,-35.71,-0.48,-1.21,-8.02,-1.01,-0.28,16.33,101326.91,6.42,5.42,5.42,0.0,vol 6,0.475,2.9524137931034486
356935.0,-0.51,0.59,1.8,-35.51,-0.33,-1.37,-8.15,-0.96,-0.43,16.33,101326.91,6.42,5.52,5.52,0.0,vol 6,0.485,2.9524137931034486
356945.0,-0.58,0.58,1.8,-35.36,-0.12,-1.49,-8.3,-0.88,-0.56,16.33,101326.91,6.42,5.61,5.61,0.0,vol 6,0.495,2.9524137931034486
356955.0,-0.64,0.56,1.79,-35.26,0.09,-1.57,-8.45,-0.79,-0.66,16.33,101320.88,6.92,5.74,5.74,0.0,vol 6,0.505,3.4524137931034486
356966.0,-0.72,0.56,1.78,-35.13,0.32,-1.52,-8.64,-0.67,-0.74,16.33,101320.88,6.92,5.86,5.86,0.0,vol 6,0.516,3.4524137931034486
356976.0,-0.8,0.56,1.77,-35.25,0.56,-1.39,-8.81,-0.57,-0.78,16.33,101320.88,6.92,5.96,5.96,0.0,vol 6,0.526,3.4524137931034486
356986.0,-0.87,0.55,1.77,-35.19,0.79,-1.25,-8.98,-0.48,-0.79,16.33,101320.88,6.92,6.06,6.06,0.0,vol 6,0.536,3.4524137931034486
356996.0,-0.93,0.55,1.76,-35.31,1.02,-1.12,-9.15,-0.4,-0.78,16.33,101314.5,7.45,6.2,6.2,0.0,vol 6,0.546,3.982413793103449
357006.0,-1.01,0.54,1.75,-35.18,1.22,-0.98,-9.33,-0.34,-0.74,16.33,101314.5,7.45,6.32,6.32,0.0,vol 6,0.556,3.982413793103449
357015.0,-1.09,0.53,1.75,-35.02,1.41,-0.86,-9.51,-0.3,-0.69,16.33,101314.5,7.45,6.44,6.44,0.0,vol 6,0.565,3.982413793103449
357025.0,-1.17,0.52,1.74,-34.82,1.59,-0.72,-9.69,-0.27,-0.62,16.33,101314.5,7.45,6.54,6.54,0.0,vol 6,0.575,3.982413793103449
357035.0,-1.25,0.51,1.73,-34.79,1.75,-0.53,-9.87,-0.27,-0.53,16.33,101307.47,8.03,6.69,6.69,0.0,vol 6,0.585,4.562413793103448
357045.0,-1.35,0.51,1.73,-34.7,1.79,-0.32,-10.04,-0.29,-0.44,16.33,101307.47,8.03,6.82,6.82,0.0,vol 6,0.595,4.562413793103448
357055.0,-1.45,0.51,1.73,-34.67,1.75,-0.11,-10.19,-0.34,-0.35,16.33,101307.47,8.03,6.94,6.94,0.0,vol 6,0.605,4.562413793103448
357065.0,-1.55,0.51,1.72,-34.24,1.66,0.06,-10.34,-0.41,-0.28,16.33,101307.47,8.63,7.11,7.11,0.0,vol 6,0.615,5.1624137931034495
357075.0,-1.66,0.51,1.72,-33.81,1.51,0.23,-10.47,-0.51,-0.22,16.33,101300.27,8.63,7.26,7.26,0.0,vol 6,0.625,5.1624137931034495
357085.0,-1.78,0.52,1.72,-33.48,1.29,0.33,-10.59,-0.61,-0.19,16.33,101300.27,8.63,7.4,7.4,0.0,vol 6,0.635,5.1624137931034495
357096.0,-1.91,0.53,1.72,-33.02,1.02,0.38,-10.71,-0.74,-0.19,16.33,101300.27,8.63,7.52,7.52,0.0,vol 6,0.646,5.1624137931034495
357106.0,-2.02,0.53,1.71,-32.61,0.8,0.36,-10.8,-0.85,-0.23,16.33,101292.23,9.3,7.7,7.7,0.0,vol 6,0.656,5.832413793103449
357116.0,-2.14,0.54,1.71,-32.26,0.59,0.26,-10.89,-0.96,-0.29,16.33,101292.23,9.3,7.86,7.86,0.0,vol 6,0.666,5.832413793103449
357126.0,-2.26,0.54,1.71,-31.96,0.45,0.08,-10.98,-1.05,-0.38,16.33,101292.23,9.3,8.01,8.01,0.0,vol 6,0.676,5.832413793103449
357136.0,-2.37,0.54,1.7,-31.72,0.34,-0.13,-11.06,-1.11,-0.5,16.33,101292.23,9.3,8.14,8.14,0.0,vol 6,0.686,5.832413793103449
357146.0,-2.48,0.52,1.7,-31.51,0.28,-0.4,-11.15,-1.14,-0.62,16.33,101284.19,9.97,8.32,8.32,0.0,vol 6,0.696,6.502413793103449
357156.0,-2.59,0.49,1.69,-31.24,0.31,-0.68,-11.25,-1.14,-0.74,16.33,101284.19,9.97,8.48,8.48,0.0,vol 6,0.706,6.502413793103449
357167.0,-2.68,0.45,1.68,-30.93,0.52,-0.99,-11.35,-1.1,-0.88,16.33,101284.19,9.97,8.63,8.63,0.0,vol 6,0.717,6.502413793103449
357177.0,-2.77,0.42,1.67,-30.63,0.8,-1.2,-11.47,-1.02,-0.97,16.33,101275.31,10.71,8.84,8.84,0.0,vol 6,0.727,7.24241379310345
357187.0,-2.86,0.38,1.66,-30.36,1.12,-1.37,-11.6,-0.93,-1.03,16.33,101275.31,10.71,9.03,9.03,0.0,vol 6,0.737,7.24241379310345
357197.0,-2.94,0.35,1.65,-30.13,1.46,-1.45,-11.74,-0.82,-1.05,16.33,101275.31,10.71,9.2,9.2,0.0,vol 6,0.747,7.24241379310345
357206.0,-3.03,0.32,1.64,-30.14,1.86,-1.45,-11.89,-0.71,-1.03,16.33,101275.31,10.71,9.35,9.35,0.0,vol 6,0.756,7.24241379310345
357216.0,-3.11,0.3,1.63,-30.1,2.26,-1.34,-12.05,-0.61,-0.96,16.33,101266.43,11.45,9.56,9.56,0.0,vol 6,0.766,7.982413793103448
357226.0,-3.21,0.28,1.62,-30.02,2.54,-1.18,-12.2,-0.54,-0.87,16.33,101266.43,11.45,9.75,9.75,0.0,vol 6,0.776,7.982413793103448
357236.0,-3.31,0.26,1.61,-29.87,2.76,-0.96,-12.37,-0.5,-0.74,16.33,101266.43,11.45,9.92,9.92,0.0,vol 6,0.786,7.982413793103448
357246.0,-3.42,0.25,1.61,-29.82,2.86,-0.67,-12.54,-0.5,-0.59,16.33,101266.43,11.45,10.07,10.07,0.0,vol 6,0.796,7.982413793103448
357256.0,-3.54,0.25,1.6,-29.76,2.86,-0.45,-12.69,-0.54,-0.44,16.33,101256.89,12.25,10.29,10.29,0.0,vol 6,0.806,8.782413793103448
357266.0,-3.67,0.25,1.6,-29.68,2.77,-0.29,-12.83,-0.61,-0.3,16.33,101256.89,12.25,10.48,10.48,0.0,vol 6,0.816,8.782413793103448
357276.0,-3.81,0.26,1.6,-29.59,2.58,-0.18,-12.96,-0.72,-0.19,16.33,101256.89,12.25,10.66,10.66,0.0,vol 6,0.826,8.782413793103448
357286.0,-3.96,0.27,1.6,-29.51,2.32,-0.14,-13.09,-0.86,-0.11,16.33,101256.89,13.05,10.9,10.9,0.0,vol 6,0.836,9.582413793103449
357296.0,-4.1,0.28,1.6,-29.44,2.11,-0.17,-13.19,-1.0,-0.08,16.33,101247.17,13.05,11.12,11.12,0.0,vol 6,0.846,9.582413793103449
357306.0,-4.24,0.28,1.6,-29.4,1.94,-0.32,-13.27,-1.13,-0.09,16.33,101247.17,13.05,11.31,11.31,0.0,vol 6,0.856,9.582413793103449
357317.0,-4.38,0.28,1.59,-29.29,1.78,-0.53,-13.36,-1.24,-0.12,16.33,101247.17,13.05,11.48,11.48,0.0,vol 6,0.867,9.582413793103449
357327.0,-4.52,0.27,1.59,-29.15,1.63,-0.78,-13.45,-1.32,-0.18,16.33,101236.78,13.92,11.73,11.73,0.0,vol 6,0.877,10.45241379310345
357337.0,-4.65,0.25,1.59,-29.1,1.59,-1.04,-13.55,-1.37,-0.26,16.33,101236.78,13.92,11.95,11.95,0.0,vol 6,0.887,10.45241379310345
357347.0,-4.78,0.22,1.59,-29.04,1.64,-1.32,-13.65,-1.37,-0.34,16.33,101236.78,13.92,12.14,12.14,0.0,vol 6,0.897,10.45241379310345
357357.0,-4.9,0.19,1.58,-28.98,1.77,-1.51,-13.76,-1.35,-0.41,16.33,101236.78,13.92,12.32,12.32,0.0,vol 6,0.907,10.45241379310345
357366.0,-5.02,0.16,1.58,-28.84,1.98,-1.56,-13.89,-1.3,-0.48,16.33,101226.06,14.81,12.57,12.57,0.0,vol 6,0.916,11.34241379310345
357376.0,-5.13,0.12,1.57,-28.75,2.26,-1.67,-14.03,-1.25,-0.52,16.33,101226.06,14.81,12.8,12.8,0.0,vol 6,0.926,11.34241379310345
357387.0,-5.25,0.09,1.57,-28.79,2.5,-1.73,-14.17,-1.18,-0.52,16.33,101226.06,14.81,13.0,13.0,0.0,vol 6,0.937,11.34241379310345
357397.0,-5.37,0.07,1.56,-28.79,2.72,-1.74,-14.32,-1.12,-0.51,16.33,101226.06,14.81,13.18,13.18,0.0,vol 6,0.947,11.34241379310345
357406.0,-5.49,0.05,1.56,-28.75,2.86,-1.61,-14.48,-1.07,-0.47,16.33,101215.17,15.72,13.43,13.43,0.0,vol 6,0.956,12.25241379310345
357416.0,-5.63,0.05,1.55,-28.63,2.89,-1.4,-14.62,-1.04,-0.41,16.33,101215.17,15.72,13.66,13.66,0.0,vol 6,0.966,12.25241379310345
357426.0,-5.77,0.04,1.55,-28.46,2.86,-1.3,-14.74,-1.04,-0.35,16.33,101215.17,15.72,13.87,13.87,0.0,vol 6,0.976,12.25241379310345
357436.0,-5.91,0.02,1.55,-28.28,2.95,-1.28,-14.86,-1.05,-0.3,16.33,101215.17,16.66,14.15,14.15,0.0,vol 6,0.986,13.192413793103448
357446.0,-6.04,0.01,1.55,-28.14,3.02,-1.27,-14.97,-1.08,-0.24,16.33,101203.95,16.66,14.4,14.4,0.0,vol 6,0.996,13.192413793103448
357456.0,-6.19,-0.0,1.54,-28.01,3.01,-1.26,-15.08,-1.12,-0.19,16.33,101203.95,16.66,14.62,14.62,0.0,vol 6,1.006,13.192413793103448
357467.0,-6.34,-0.01,1.54,-27.95,2.9,-1.23,-15.19,-1.17,-0.15,16.33,101203.95,16.66,14.83,14.83,0.0,vol 6,1.017,13.192413793103448
357477.0,-6.52,-0.01,1.54,-27.83,2.74,-1.3,-15.29,-1.24,-0.12,16.33,101191.9,17.66,15.11,15.11,0.0,vol 6,1.027,14.192413793103448
357487.0,-6.67,-0.02,1.54,-27.66,2.6,-1.43,-15.38,-1.29,-0.12,16.33,101191.9,17.66,15.36,15.36,0.0,vol 6,1.037,14.192413793103448
357497.0,-6.84,-0.03,1.54,-27.48,2.43,-1.56,-15.46,-1.33,-0.14,16.33,101191.9,17.66,15.59,15.59,0.0,vol 6,1.047,14.192413793103448
357507.0,-7.0,-0.04,1.54,-27.28,2.25,-1.71,-15.55,-1.36,-0.18,16.33,101191.9,17.66,15.8,15.8,0.0,vol 6,1.057,14.192413793103448
357518.0,-7.16,-0.06,1.53,-27.06,2.15,-1.91,-15.63,-1.37,-0.23,16.33,101179.5,18.69,16.09,16.09,0.0,vol 6,1.068,15.222413793103447
357527.0,-7.31,-0.08,1.53,-26.89,2.12,-2.11,-15.72,-1.36,-0.29,16.33,101179.5,18.69,16.35,16.35,0.0,vol 6,1.077,15.222413793103447
357537.0,-7.45,-0.11,1.53,-26.73,2.18,-2.33,-15.81,-1.32,-0.34,16.33,101179.5,18.69,16.58,16.58,0.0,vol 6,1.087,15.222413793103447
357547.0,-7.59,-0.14,1.52,-26.6,2.34,-2.49,-15.91,-1.26,-0.39,16.33,101179.5,19.75,16.9,16.9,0.0,vol 6,1.097,16.282413793103448
357557.0,-7.73,-0.17,1.52,-26.47,2.51,-2.55,-16.02,-1.18,-0.42,16.33,101166.77,19.75,17.19,17.19,0.0,vol 6,1.107,16.282413793103448
357567.0,-7.87,-0.19,1.52,-26.32,2.66,-2.58,-16.15,-1.1,-0.42,16.33,101166.77,19.75,17.44,17.44,0.0,vol 6,1.117,16.282413793103448
357577.0,-8.01,-0.22,1.51,-26.17,2.8,-2.59,-16.29,-1.03,-0.4,16.33,101166.77,19.75,17.67,17.67,0.0,vol 6,1.127,16.282413793103448
357587.0,-8.17,-0.22,1.51,-26.11,2.81,-2.57,-16.44,-0.96,-0.36,16.33,101153.7,20.84,17.99,17.99,0.0,vol 6,1.137,17.372413793103448
357597.0,-8.34,-0.23,1.5,-26.06,2.74,-2.51,-16.58,-0.91,-0.31,16.33,101153.7,20.84,18.28,18.28,0.0,vol 6,1.147,17.372413793103448
357607.0,-8.51,-0.21,1.5,-26.05,2.61,-2.27,-16.72,-0.87,-0.27,16.33,101153.7,20.84,18.53,18.53,0.0,vol 6,1.157,17.372413793103448
357617.0,-8.68,-0.19,1.5,-26.13,2.5,-1.93,-16.82,-0.85,-0.23,16.33,101153.7,20.84,18.76,18.76,0.0,vol 6,1.167,17.372413793103448
357627.0,-8.85,-0.19,1.5,-26.14,2.39,-1.75,-16.89,-0.87,-0.21,16.33,101139.64,22.02,19.09,19.09,0.0,vol 6,1.177,18.552413793103447
357637.0,-9.02,-0.18,1.5,-26.21,2.29,-1.64,-16.95,-0.91,-0.2,16.33,101139.64,22.02,19.38,19.38,0.0,vol 6,1.187,18.552413793103447
357647.0,-9.2,-0.18,1.49,-26.2,2.16,-1.59,-17.0,-0.96,-0.2,16.33,101139.64,22.02,19.65,19.65,0.0,vol 6,1.197,18.552413793103447
357657.0,-9.37,-0.18,1.49,-26.22,2.0,-1.59,-17.04,-1.01,-0.22,16.33,101139.64,22.02,19.88,19.88,0.0,vol 6,1.207,18.552413793103447
357667.0,-9.55,-0.18,1.49,-26.25,1.84,-1.58,-17.07,-1.05,-0.26,16.33,101126.23,23.13,20.21,20.21,0.0,vol 6,1.217,19.662413793103447
357677.0,-9.72,-0.19,1.49,-26.24,1.77,-1.68,-17.09,-1.09,-0.31,16.33,101126.23,23.13,20.5,20.5,0.0,vol 6,1.227,19.662413793103447
357687.0,-9.88,-0.21,1.48,-26.21,1.81,-1.83,-17.12,-1.11,-0.38,16.33,101126.23,23.13,20.76,20.76,0.0,vol 6,1.237,19.662413793103447
357697.0,-10.03,-0.24,1.48,-26.13,1.98,-2.01,-17.17,-1.11,-0.44,16.33,101112.34,24.29,21.12,21.12,0.0,vol 6,1.247,20.822413793103447
357707.0,-10.18,-0.27,1.47,-26.04,2.21,-2.11,-17.22,-1.09,-0.47,16.33,101112.34,24.29,21.43,21.43,0.0,vol 6,1.257,20.822413793103447
357717.0,-10.33,-0.3,1.47,-26.09,2.41,-2.15,-17.28,-1.07,-0.48,16.33,101112.34,24.29,21.72,21.72,0.0,vol 6,1.267,20.822413793103447
357727.0,-10.48,-0.32,1.46,-26.17,2.6,-2.17,-17.35,-1.04,-0.47,16.33,101112.34,24.29,21.98,21.98,0.0,vol 6,1.277,20.822413793103447
357737.0,-10.63,-0.34,1.46,-26.23,2.78,-2.1,-17.44,-1.03,-0.45,16.33,101097.43,25.54,22.33,22.33,0.0,vol 6,1.287,22.072413793103447
357747.0,-10.78,-0.36,1.45,-26.23,2.96,-2.05,-17.44,-1.02,-0.4,16.33,101097.43,25.54,22.65,22.65,0.0,vol 6,1.297,22.072413793103447
357757.0,-10.94,-0.37,1.45,-26.29,3.04,-1.96,-17.44,-1.03,-0.35,16.33,101097.43,25.54,22.94,22.94,0.0,vol 6,1.307,22.072413793103447
357767.0,-11.11,-0.38,1.45,-26.3,3.06,-1.84,-17.44,-1.06,-0.3,16.33,101097.43,25.54,23.2,23.2,0.0,vol 6,1.317,22.072413793103447
357777.0,-11.26,-0.38,1.45,-26.25,3.03,-1.83,-17.44,-1.11,-0.28,16.33,101082.52,26.78,23.56,23.56,0.0,vol 6,1.327,23.31241379310345
357787.0,-11.45,-0.39,1.44,-26.19,2.97,-1.86,-17.44,-1.16,-0.28,16.33,101082.52,26.78,23.88,23.88,0.0,vol 6,1.337,23.31241379310345
357797.0,-11.62,-0.4,1.44,-26.18,2.95,-1.85,-17.44,-1.2,-0.31,16.33,101082.52,26.78,24.17,24.17,0.0,vol 6,1.347,23.31241379310345
357807.0,-11.78,-0.42,1.44,-26.11,3.0,-1.86,-17.44,-1.24,-0.36,16.33,101082.52,28.06,24.56,24.56,0.0,vol 6,1.357,24.592413793103447
357817.0,-11.92,-0.44,1.43,-26.08,3.13,-1.88,-17.44,-1.28,-0.41,16.33,101067.12,28.06,24.91,24.91,0.0,vol 6,1.367,24.592413793103447
357827.0,-12.08,-0.46,1.43,-26.05,3.27,-1.82,-17.44,-1.31,-0.45,16.33,101067.12,28.06,25.23,25.23,0.0,vol 6,1.377,24.592413793103447
357837.0,-12.23,-0.48,1.42,-25.96,3.34,-1.79,-17.44,-1.33,-0.48,16.33,101067.12,28.06,25.51,25.51,0.0,vol 6,1.387,24.592413793103447
357847.0,-12.42,-0.5,1.42,-25.82,3.36,-1.84,-17.44,-1.36,-0.51,16.33,101051.88,29.34,25.89,25.89,0.0,vol 6,1.397,25.872413793103448
357857.0,-12.56,-0.52,1.41,-25.74,3.45,-1.91,-17.44,-1.38,-0.55,16.33,101051.88,29.34,26.24,26.24,0.0,vol 6,1.407,25.872413793103448
357867.0,-12.72,-0.55,1.41,-25.68,3.55,-1.94,-17.44,-1.39,-0.58,16.33,101051.88,29.34,26.55,26.55,0.0,vol 6,1.417,25.872413793103448
357877.0,-12.87,-0.57,1.4,-25.6,3.65,-1.95,-17.44,-1.39,-0.6,16.33,101051.88,29.34,26.82,26.82,0.0,vol 6,1.427,25.872413793103448
357887.0,-13.03,-0.59,1.39,-25.52,3.75,-2.0,-17.44,-1.4,-0.6,16.33,101036.47,30.62,27.2,27.2,0.0,vol 6,1.437,27.15241379310345
357897.0,-13.2,-0.62,1.39,-25.28,3.84,-2.04,-17.44,-1.4,-0.6,16.33,101036.47,30.62,27.55,27.55,0.0,vol 6,1.447,27.15241379310345
357907.0,-13.36,-0.64,1.38,-25.11,3.91,-2.1,-17.44,-1.41,-0.6,16.33,101036.47,30.62,27.85,27.85,0.0,vol 6,1.457,27.15241379310345
357917.0,-13.51,-0.67,1.38,-24.96,3.97,-2.22,-17.44,-1.41,-0.59,16.33,101036.47,30.62,28.13,28.13,0.0,vol 6,1.467,27.15241379310345
357927.0,-13.66,-0.7,1.37,-24.77,4.08,-2.3,-17.44,-1.4,-0.58,16.33,101020.72,31.93,28.51,28.51,0.0,vol 6,1.477,28.462413793103448
357936.0,-13.82,-0.72,1.37,-24.61,4.2,-2.34,-17.44,-1.39,-0.56,16.33,101020.72,31.93,28.85,28.85,0.0,vol 6,1.486,28.462413793103448
357946.0,-13.97,-0.75,1.36,-24.62,4.3,-2.37,-17.44,-1.39,-0.52,16.33,101020.72,31.93,29.16,29.16,0.0,vol 6,1.496,28.462413793103448
357956.0,-14.14,-0.77,1.36,-24.82,4.39,-2.48,-17.44,-1.4,-0.47,16.33,101005.21,33.23,29.57,29.57,0.0,vol 6,1.506,29.762413793103445
357967.0,-14.3,-0.79,1.35,-24.85,4.42,-2.62,-17.44,-1.42,-0.4,16.33,101005.21,33.23,29.93,29.93,0.0,vol 6,1.517,29.762413793103445
357977.0,-14.5,-0.8,1.35,-24.89,4.32,-2.73,-17.44,-1.44,-0.33,16.33,101005.21,33.23,30.26,30.26,0.0,vol 6,1.527,29.762413793103445
357987.0,-14.68,-0.81,1.35,-24.94,4.19,-2.87,-17.44,-1.47,-0.27,16.33,101005.21,33.23,30.56,30.56,0.0,vol 6,1.537,29.762413793103445
357998.0,-14.85,-0.83,1.34,-24.99,4.11,-3.06,-17.44,-1.49,-0.23,16.33,100989.3,34.56,30.96,30.96,0.0,vol 6,1.548,31.09241379310345
358008.0,-15.02,-0.85,1.34,-25.06,4.08,-3.26,-17.44,-1.5,-0.19,16.33,100989.3,34.56,31.32,31.32,0.0,vol 6,1.558,31.09241379310345
358018.0,-15.21,-0.88,1.34,-25.09,4.05,-3.51,-17.44,-1.5,-0.16,16.33,100989.3,34.56,31.64,31.64,0.0,vol 6,1.568,31.09241379310345
358028.0,-15.37,-0.91,1.34,-25.05,4.1,-3.74,-17.44,-1.48,-0.14,16.33,100989.3,34.56,31.93,31.93,0.0,vol 6,1.578,31.09241379310345
358038.0,-15.54,-0.94,1.34,-25.0,4.13,-3.93,-17.44,-1.46,-0.11,16.33,100972.48,35.96,32.34,32.34,0.0,vol 6,1.588,32.49241379310345
358049.0,-15.7,-0.96,1.34,-24.97,4.16,-4.08,-17.44,-1.43,-0.07,16.33,100972.48,35.96,32.7,32.7,0.0,vol 6,1.599,32.49241379310345
358059.0,-15.89,-0.99,1.34,-24.97,4.13,-4.28,-17.44,-1.4,-0.03,16.33,100972.48,35.96,33.03,33.03,0.0,vol 6,1.609,32.49241379310345
358069.0,-16.07,-1.01,1.34,-24.9,4.02,-4.41,-17.44,-1.37,0.01,16.33,100956.47,37.3,33.45,33.45,0.0,vol 6,1.619,33.83241379310345
358079.0,-16.24,-1.01,1.34,-24.9,3.92,-4.43,-17.44,-1.33,0.05,16.33,100956.47,37.3,33.84,33.84,0.0,vol 6,1.629,33.83241379310345
358089.0,-16.42,-1.01,1.34,-24.87,3.85,-4.3,-17.44,-1.31,0.08,16.33,100956.47,37.3,34.18,34.18,0.0,vol 6,1.639,33.83241379310345
358099.0,-16.59,-1.01,1.34,-24.85,3.73,-4.19,-17.44,-1.3,0.11,16.33,100956.47,37.3,34.49,34.49,0.0,vol 6,1.649,33.83241379310345
358109.0,-16.76,-1.02,1.34,-24.76,3.67,-4.08,-17.44,-1.32,0.13,16.33,100939.16,38.74,34.92,34.92,0.0,vol 6,1.659,35.27241379310345
358119.0,-16.94,-1.02,1.34,-24.7,3.6,-3.97,-17.44,-1.33,0.14,16.33,100939.16,38.74,35.3,35.3,0.0,vol 6,1.669,35.27241379310345
358129.0,-17.11,-1.02,1.34,-24.66,3.53,-3.84,-17.44,-1.36,0.13,16.33,100939.16,38.74,35.65,35.65,0.0,vol 6,1.679,35.27241379310345
358139.0,-17.27,-1.04,1.34,-24.16,3.52,-3.78,-17.44,-1.4,0.11,16.33,100939.16,38.74,35.96,35.96,0.0,vol 6,1.689,35.27241379310345
358149.0,-17.43,-1.09,1.34,-22.26,3.39,-3.85,-17.44,-1.45,0.08,16.33,100922.08,40.17,36.38,36.38,0.0,vol 6,1.699,36.70241379310345
358159.0,-17.56,-1.18,1.34,-19.41,3.23,-4.05,-17.44,-1.48,0.03,16.33,100922.08,40.17,36.76,36.76,0.0,vol 6,1.709,36.70241379310345
358169.0,-17.66,-1.34,1.34,-15.99,3.24,-4.3,-17.44,-1.48,-0.03,16.33,100922.08,40.17,37.1,37.1,0.0,vol 6,1.719,36.70241379310345
358179.0,-17.71,-1.57,1.34,-12.36,3.18,-4.47,-17.44,-1.44,-0.07,16.33,100906.16,41.5,37.54,37.54,0.0,vol 6,1.729,38.03241379310345
358189.0,-17.71,-1.92,1.34,-8.79,3.18,-4.61,-17.44,-1.4,-0.1,16.33,100906.16,41.5,37.93,37.93,0.0,vol 6,1.739,38.03241379310345
358199.0,-17.63,-2.48,1.34,-5.4,3.21,-4.56,-17.44,-1.35,-0.13,16.33,100906.16,41.5,38.29,38.29,0.0,vol 6,1.749,38.03241379310345
358209.0,-17.48,-3.34,1.34,-2.33,3.21,-4.52,-17.44,-1.31,-0.13,16.33,100906.16,41.5,38.61,38.61,0.0,vol 6,1.759,38.03241379310345
358219.0,-17.52,-4.2,1.34,-0.16,3.25,-4.54,-17.44,-1.28,-0.13,16.33,100890.75,42.79,39.03,39.03,0.0,vol 6,1.769,39.32241379310345
358229.0,-17.73,-4.88,1.34,1.5,3.25,-4.5,-17.44,-1.25,-0.11,16.33,100890.75,42.79,39.4,39.4,0.0,vol 6,1.779,39.32241379310345
358239.0,-18.03,-5.34,1.34,2.74,3.21,-4.53,-17.44,-1.23,-0.1,16.33,100890.75,42.79,39.74,39.74,0.0,vol 6,1.789,39.32241379310345
358249.0,-18.28,-5.63,1.34,3.68,3.24,-4.56,-17.44,-1.2,-0.07,16.33,100890.75,42.79,40.05,40.05,0.0,vol 6,1.799,39.32241379310345
358259.0,-18.49,-5.82,1.34,4.38,3.37,-4.54,-17.44,-1.17,-0.04,16.33,100875.02,44.1,40.45,40.45,0.0,vol 6,1.809,40.63241379310345
358270.0,-18.67,-5.93,1.34,4.91,3.57,-4.57,-17.44,-1.14,0.02,16.33,100875.02,44.1,40.82,40.82,0.0,vol 6,1.82,40.63241379310345
358280.0,-18.87,-6.02,1.34,5.26,3.58,-4.6,-17.44,-1.13,0.09,16.33,100875.02,44.1,41.15,41.15,0.0,vol 6,1.83,40.63241379310345
358290.0,-19.11,-6.11,1.34,5.52,3.4,-4.58,-17.44,-1.13,0.16,16.33,100859.1,45.43,41.57,41.57,0.0,vol 6,1.84,41.96241379310345
358300.0,-19.39,-6.19,1.34,5.73,3.08,-4.6,-17.44,-1.13,0.22,16.33,100859.1,45.43,41.96,41.96,0.0,vol 6,1.85,41.96241379310345
358311.0,-19.66,-6.26,1.34,5.89,2.73,-4.66,-17.44,-1.14,0.25,16.33,100859.1,45.43,42.31,42.31,0.0,vol 6,1.861,41.96241379310345
358321.0,-19.93,-6.31,1.35,6.01,2.42,-4.79,-17.44,-1.14,0.25,16.33,100859.1,45.43,42.62,42.62,0.0,vol 6,1.871,41.96241379310345
358331.0,-20.18,-6.3,1.35,6.12,2.18,-5.08,-17.44,-1.12,0.24,16.33,100843.7,46.72,43.03,43.03,0.0,vol 6,1.881,43.25241379310345
358341.0,-20.4,-6.29,1.35,6.18,2.06,-5.33,-17.44,-1.08,0.22,16.33,100843.7,46.72,43.4,43.4,0.0,vol 6,1.891,43.25241379310345
358351.0,-20.56,-6.28,1.35,6.19,2.1,-5.44,-17.44,-1.01,0.2,16.33,100843.7,46.72,43.73,43.73,0.0,vol 6,1.901,43.25241379310345
358360.0,-20.69,-6.27,1.35,6.2,2.26,-5.48,-17.44,-0.93,0.21,16.33,100843.7,46.72,44.03,44.03,0.0,vol 6,1.91,43.25241379310345
358370.0,-20.83,-6.27,1.36,6.18,2.34,-5.43,-17.44,-0.86,0.24,16.32,100827.05,48.11,44.44,44.44,0.0,vol 6,1.92,44.64241379310345
358381.0,-20.99,-6.3,1.36,6.15,2.34,-5.3,-17.44,-0.8,0.29,16.32,100827.05,48.11,44.8,44.8,0.0,vol 6,1.931,44.64241379310345
358391.0,-21.18,-6.34,1.36,6.11,2.23,-5.12,-17.44,-0.76,0.34,16.32,100827.05,48.11,45.13,45.13,0.0,vol 6,1.941,44.64241379310345
358402.0,-21.42,-6.4,1.37,6.06,1.98,-4.93,-17.44,-0.75,0.4,16.32,100810.97,49.45,45.57,45.57,0.0,vol 6,1.952,45.982413793103454
358412.0,-21.69,-6.46,1.37,6.05,1.63,-4.8,-17.44,-0.75,0.43,16.32,100810.97,49.45,45.95,45.95,0.0,vol 6,1.962,45.982413793103454
358422.0,-21.94,-6.5,1.38,6.02,1.33,-4.72,-17.44,-0.77,0.42,16.32,100810.97,49.45,46.3,46.3,0.0,vol 6,1.972,45.982413793103454
358432.0,-22.17,-6.52,1.38,6.0,1.11,-4.68,-17.44,-0.78,0.39,16.32,100810.97,49.45,46.62,46.62,0.0,vol 6,1.982,45.982413793103454
358443.0,-22.39,-6.54,1.38,5.98,0.95,-4.66,-17.44,-0.78,0.35,16.32,100794.05,50.87,47.04,47.04,0.0,vol 6,1.993,47.40241379310345
358453.0,-22.61,-6.55,1.39,5.97,0.82,-4.67,-17.44,-0.78,0.28,16.32,100794.05,50.87,47.43,47.43,0.0,vol 6,2.003,47.40241379310345
358464.0,-22.81,-6.55,1.39,5.95,0.72,-4.69,-17.44,-0.75,0.22,16.32,100794.05,50.87,47.77,47.77,0.0,vol 6,2.014,47.40241379310345
358474.0,-22.98,-6.56,1.39,5.91,0.69,-4.67,-17.44,-0.72,0.16,16.32,100794.05,52.31,48.22,48.22,0.0,vol 6,2.024,48.842413793103454
358485.0,-23.15,-6.56,1.39,5.85,0.73,-4.61,-17.44,-0.67,0.11,16.32,100776.8,52.31,48.63,48.63,0.0,vol 6,2.035,48.842413793103454
358495.0,-23.31,-6.59,1.39,5.83,0.76,-4.51,-17.44,-0.62,0.07,16.32,100776.8,52.31,49.0,49.0,0.0,vol 6,2.045,48.842413793103454
358505.0,-23.49,-6.62,1.39,5.79,0.77,-4.39,-17.44,-0.58,0.05,16.32,100776.8,52.31,49.33,49.33,0.0,vol 6,2.055,48.842413793103454
358515.0,-23.66,-6.65,1.39,5.75,0.73,-4.24,-17.44,-0.54,0.03,16.32,100759.05,53.79,49.78,49.78,0.0,vol 6,2.065,50.32241379310345
358525.0,-23.84,-6.69,1.39,5.71,0.69,-4.1,-17.44,-0.51,0.02,16.32,100759.05,53.79,50.18,50.18,0.0,vol 6,2.075,50.32241379310345
358535.0,-24.02,-6.73,1.39,5.68,0.63,-3.96,-17.44,-0.49,0.01,16.32,100759.05,53.79,50.54,50.54,0.0,vol 6,2.085,50.32241379310345
358545.0,-24.2,-6.75,1.39,5.64,0.57,-3.86,-17.44,-0.48,-0.01,16.32,100759.05,53.79,50.87,50.87,0.0,vol 6,2.095,50.32241379310345
358555.0,-24.38,-6.78,1.39,5.6,0.51,-3.76,-17.44,-0.48,-0.02,16.32,100741.08,55.3,51.31,51.31,0.0,vol 6,2.105,51.83241379310345
358565.0,-24.55,-6.8,1.39,5.58,0.47,-3.7,-17.44,-0.47,-0.04,16.32,100741.08,55.3,51.71,51.71,0.0,vol 6,2.115,51.83241379310345
358575.0,-24.72,-6.81,1.39,5.56,0.47,-3.67,-17.44,-0.46,-0.06,16.32,100741.08,55.3,52.07,52.07,0.0,vol 6,2.125,51.83241379310345
358584.0,-24.9,-6.82,1.39,5.53,0.44,-3.62,-17.44,-0.45,-0.07,16.32,100741.08,56.78,52.54,52.54,0.0,vol 6,2.134,53.31241379310345
358594.0,-25.07,-6.82,1.39,5.51,0.44,-3.61,-17.44,-0.44,-0.08,16.32,100723.32,56.78,52.96,52.96,0.0,vol 6,2.144,53.31241379310345
358605.0,-25.24,-6.85,1.39,5.51,0.43,-3.52,-17.44,-0.43,-0.1,16.32,100723.32,56.78,53.34,53.34,0.0,vol 6,2.155,53.31241379310345
358615.0,-25.43,-6.87,1.39,5.5,0.4,-3.49,-17.44,-0.42,-0.11,16.32,100723.32,56.78,53.69,53.69,0.0,vol 6,2.165,53.31241379310345
358625.0,-25.6,-6.86,1.39,5.48,0.38,-3.51,-17.44,-0.41,-0.11,16.32,100705.4,58.28,54.15,54.15,0.0,vol 6,2.175,54.81241379310345
358635.0,-25.76,-6.88,1.39,5.46,0.4,-3.46,-17.44,-0.39,-0.12,16.32,100705.4,58.28,54.56,54.56,0.0,vol 6,2.185,54.81241379310345
358645.0,-25.92,-6.88,1.38,5.42,0.44,-3.41,-17.44,-0.38,-0.12,16.32,100705.4,58.28,54.93,54.93,0.0,vol 6,2.195,54.81241379310345
358655.0,-26.08,-6.9,1.38,5.38,0.45,-3.36,-17.44,-0.37,-0.12,16.32,100705.4,58.28,55.27,55.27,0.0,vol 6,2.205,54.81241379310345
358665.0,-26.22,-6.91,1.38,5.32,0.5,-3.27,-17.44,-0.37,-0.11,16.32,100687.48,59.78,55.72,55.72,0.0,vol 6,2.215,56.31241379310345
358675.0,-26.34,-6.92,1.38,5.29,0.6,-3.21,-17.44,-0.37,-0.1,16.32,100687.48,59.78,56.12,56.12,0.0,vol 6,2.225,56.31241379310345
358685.0,-26.46,-6.94,1.38,5.25,0.7,-3.13,-17.44,-0.38,-0.09,16.32,100687.48,59.78,56.49,56.49,0.0,vol 6,2.235,56.31241379310345
358694.0,-26.61,-6.97,1.38,5.21,0.75,-3.02,-17.44,-0.4,-0.07,16.32,100687.48,59.78,56.82,56.82,0.0,vol 6,2.244,56.31241379310345
358704.0,-26.76,-6.99,1.38,5.18,0.78,-2.94,-17.44,-0.43,-0.05,16.32,100670.47,61.2,57.26,57.26,0.0,vol 6,2.254,57.732413793103454
358715.0,-26.92,-7.01,1.38,5.15,0.79,-2.85,-17.44,-0.46,-0.03,16.32,100670.47,61.2,57.65,57.65,0.0,vol 6,2.265,57.732413793103454
358725.0,-27.09,-7.04,1.38,5.12,0.77,-2.78,-17.44,-0.51,-0.02,16.32,100670.47,61.2,58.01,58.01,0.0,vol 6,2.275,57.732413793103454
358734.0,-27.28,-7.03,1.38,5.09,0.71,-2.82,-17.44,-0.55,-0.02,16.32,100652.88,62.68,58.47,58.47,0.0,vol 6,2.284,59.21241379310345
358744.0,-27.48,-7.01,1.38,5.08,0.64,-2.88,-17.39,-0.59,-0.03,16.32,100652.88,62.68,58.89,58.89,0.0,vol 6,2.294,59.21241379310345
358754.0,-27.68,-7.0,1.38,5.06,0.54,-2.97,-17.31,-0.62,-0.05,16.32,100652.88,62.68,59.27,59.27,0.0,vol 6,2.304,59.21241379310345
358764.0,-27.87,-6.99,1.38,5.05,0.47,-3.01,-17.23,-0.63,-0.07,16.32,100652.88,62.68,59.61,59.61,0.0,vol 6,2.314,59.21241379310345
358775.0,-28.04,-6.98,1.38,5.04,0.46,-3.05,-17.15,-0.62,-0.11,16.32,100635.47,64.13,60.06,60.06,0.0,vol 6,2.325,60.66241379310345
358784.0,-28.21,-6.98,1.37,5.05,0.47,-3.08,-17.08,-0.61,-0.14,16.32,100635.47,64.13,60.47,60.47,0.0,vol 6,2.334,60.66241379310345
358793.0,-28.35,-6.98,1.37,5.06,0.47,-3.1,-17.02,-0.59,-0.16,16.32,100635.47,64.13,60.84,60.84,0.0,vol 6,2.343,60.66241379310345
358804.0,-28.48,-6.97,1.37,5.06,0.57,-3.14,-16.96,-0.57,-0.18,16.32,100635.47,64.13,61.17,61.17,0.0,vol 6,2.354,60.66241379310345
358814.0,-28.64,-6.98,1.37,5.06,0.63,-3.12,-16.91,-0.54,-0.2,16.32,100617.88,65.6,61.61,61.61,0.0,vol 6,2.364,62.132413793103446
358824.0,-28.81,-7.0,1.37,5.04,0.59,-3.04,-16.86,-0.51,-0.2,16.32,100617.88,65.6,62.01,62.01,0.0,vol 6,2.374,62.132413793103446
358834.0,-29.01,-7.06,1.37,5.0,0.48,-2.89,-16.8,-0.49,-0.2,16.32,100617.88,65.6,62.37,62.37,0.0,vol 6,2.384,62.132413793103446
358844.0,-29.2,-7.11,1.36,4.94,0.4,-2.74,-16.71,-0.48,-0.2,16.32,100617.88,65.6,62.69,62.69,0.0,vol 6,2.394,62.132413793103446
358854.0,-29.36,-7.13,1.36,4.89,0.38,-2.66,-16.63,-0.47,-0.22,16.32,100600.3,67.08,63.13,63.13,0.0,vol 6,2.404,63.61241379310345
358864.0,-29.51,-7.17,1.36,4.85,0.37,-2.55,-16.54,-0.47,-0.23,16.32,100600.3,67.08,63.53,63.53,0.0,vol 6,2.414,63.61241379310345
358874.0,-29.67,-7.22,1.36,4.81,0.35,-2.39,-16.44,-0.48,-0.24,16.32,100600.3,67.08,63.88,63.88,0.0,vol 6,2.424,63.61241379310345
358883.0,-29.85,-7.25,1.35,4.79,0.3,-2.32,-16.36,-0.49,-0.26,16.32,100582.72,68.55,64.35,64.35,0.0,vol 6,2.433,65.08241379310344
358893.0,-30.03,-7.25,1.35,4.75,0.24,-2.34,-16.27,-0.51,-0.28,16.32,100582.72,68.55,64.77,64.77,0.0,vol 6,2.443,65.08241379310344
358903.0,-30.23,-7.26,1.35,4.73,0.14,-2.32,-16.19,-0.51,-0.3,16.32,100582.72,68.55,65.15,65.15,0.0,vol 6,2.453,65.08241379310344
358914.0,-30.45,-7.23,1.34,4.72,-0.0,-2.4,-16.1,-0.51,-0.34,16.32,100582.72,68.55,65.49,65.49,0.0,vol 6,2.464,65.08241379310344
358923.0,-30.6,-7.19,1.34,4.71,-0.0,-2.52,-16.0,-0.5,-0.38,16.32,100565.13,70.02,65.94,65.94,0.0,vol 6,2.473,66.55241379310344
358933.0,-30.73,-7.16,1.34,4.69,0.06,-2.59,-15.93,-0.47,-0.41,16.32,100565.13,70.02,66.35,66.35,0.0,vol 6,2.483,66.55241379310344
358943.0,-30.82,-7.14,1.33,4.66,0.19,-2.63,-15.86,-0.43,-0.44,16.32,100565.13,70.02,66.72,66.72,0.0,vol 6,2.493,66.55241379310344
358953.0,-30.88,-7.15,1.33,4.61,0.41,-2.58,-15.81,-0.39,-0.45,16.32,100565.13,70.02,67.05,67.05,0.0,vol 6,2.503,66.55241379310344
358963.0,-30.93,-7.15,1.32,4.56,0.62,-2.49,-15.75,-0.35,-0.44,16.32,100548.05,71.45,67.49,67.49,0.0,vol 6,2.513,67.98241379310345
358973.0,-31.01,-7.17,1.32,4.5,0.77,-2.39,-15.7,-0.31,-0.4,16.32,100548.05,71.45,67.88,67.88,0.0,vol 6,2.523,67.98241379310345
358983.0,-31.12,-7.18,1.32,4.45,0.86,-2.3,-15.65,-0.3,-0.35,16.32,100548.05,71.45,68.24,68.24,0.0,vol 6,2.533,67.98241379310345
358995.0,-31.23,-7.25,1.31,4.41,0.95,-2.05,-15.6,-0.31,-0.29,16.32,100530.97,72.85,68.7,68.7,0.0,vol 6,2.545,69.38241379310344
359004.0,-31.4,-7.34,1.31,4.37,0.88,-1.84,-15.53,-0.34,-0.23,16.33,100531.38,72.85,69.12,69.12,0.0,vol 6,2.554,69.38241379310344
359015.0,-31.56,-7.4,1.31,4.34,0.84,-1.71,-15.47,-0.39,-0.19,16.33,100531.38,72.85,69.49,69.49,0.0,vol 6,2.565,69.38241379310344
359025.0,-31.71,-7.44,1.31,4.32,0.87,-1.6,-15.41,-0.46,-0.16,16.33,100531.38,72.85,69.83,69.83,0.0,vol 6,2.575,69.38241379310344
359035.0,-31.83,-7.45,1.31,4.3,0.91,-1.54,-15.34,-0.53,-0.14,16.33,100514.45,74.27,70.27,70.27,0.0,vol 6,2.585,70.80241379310344
359045.0,-31.99,-7.45,1.3,4.27,0.88,-1.56,-15.27,-0.61,-0.13,16.33,100514.45,74.27,70.67,70.67,0.0,vol 6,2.595,70.80241379310344
359055.0,-32.16,-7.45,1.3,4.24,0.81,-1.59,-15.2,-0.68,-0.13,16.33,100514.45,74.27,71.03,71.03,0.0,vol 6,2.605,70.80241379310344
359065.0,-32.37,-7.42,1.3,4.21,0.7,-1.73,-15.13,-0.74,-0.14,16.33,100514.45,74.27,71.35,71.35,0.0,vol 6,2.615,70.80241379310344
359075.0,-32.55,-7.37,1.3,4.21,0.64,-1.88,-15.07,-0.79,-0.17,16.33,100497.72,75.67,71.78,71.78,0.0,vol 6,2.625,72.20241379310345
359085.0,-32.71,-7.34,1.3,4.2,0.6,-1.99,-15.02,-0.81,-0.21,16.33,100497.72,75.67,72.17,72.17,0.0,vol 6,2.635,72.20241379310345
359095.0,-32.87,-7.27,1.3,4.21,0.55,-2.19,-14.97,-0.81,-0.25,16.33,100497.72,75.67,72.52,72.52,0.0,vol 6,2.645,72.20241379310345
359105.0,-33.04,-7.2,1.29,4.21,0.51,-2.38,-14.93,-0.79,-0.29,16.33,100497.72,77.09,72.98,72.98,0.0,vol 6,2.655,73.62241379310345
359115.0,-33.18,-7.12,1.29,4.2,0.56,-2.59,-14.9,-0.75,-0.33,16.33,100480.8,77.09,73.39,73.39,0.0,vol 6,2.665,73.62241379310345
359125.0,-33.24,-7.08,1.29,4.2,0.74,-2.69,-14.89,-0.69,-0.35,16.33,100480.8,77.09,73.76,73.76,0.0,vol 6,2.675,73.62241379310345
359137.0,-33.31,-7.06,1.28,4.16,0.94,-2.67,-14.9,-0.61,-0.35,16.33,100480.8,77.09,74.09,74.09,0.0,vol 6,2.687,73.62241379310345
359147.0,-33.39,-7.05,1.28,4.1,1.07,-2.6,-14.9,-0.55,-0.33,16.33,100463.89,78.5,74.53,74.53,0.0,vol 6,2.697,75.03241379310344
359157.0,-33.47,-7.07,1.28,4.06,1.17,-2.49,-14.9,-0.5,-0.28,16.33,100463.89,78.5,74.93,74.93,0.0,vol 6,2.707,75.03241379310344
359167.0,-33.61,-7.11,1.27,4.03,1.19,-2.37,-14.89,-0.48,-0.23,16.33,100463.89,78.5,75.29,75.29,0.0,vol 6,2.717,75.03241379310344
359177.0,-33.75,-7.16,1.27,4.0,1.17,-2.24,-14.87,-0.47,-0.17,16.33,100463.89,78.5,75.61,75.61,0.0,vol 6,2.727,75.03241379310344
359187.0,-33.89,-7.23,1.27,3.98,1.11,-2.05,-14.84,-0.47,-0.12,16.33,100446.97,79.92,76.04,76.04,0.0,vol 6,2.737,76.45241379310345
359197.0,-34.04,-7.29,1.27,3.95,1.08,-1.91,-14.81,-0.5,-0.07,16.33,100446.97,79.92,76.43,76.43,0.0,vol 6,2.747,76.45241379310345
359207.0,-34.22,-7.37,1.27,3.94,0.98,-1.76,-14.76,-0.55,-0.03,16.33,100446.97,79.92,76.78,76.78,0.0,vol 6,2.757,76.45241379310345
359217.0,-34.42,-7.44,1.27,3.91,0.85,-1.67,-14.71,-0.6,-0.02,16.33,100430.39,81.28,77.23,77.23,0.0,vol 6,2.767,77.81241379310345
359227.0,-34.68,-7.49,1.27,3.9,0.66,-1.66,-14.65,-0.67,-0.02,16.33,100430.8,81.28,77.63,77.63,0.0,vol 6,2.777,77.81241379310345
359237.0,-34.91,-7.49,1.27,3.9,0.48,-1.72,-14.59,-0.73,-0.04,16.33,100430.8,81.28,78.0,78.0,0.0,vol 6,2.787,77.81241379310345
359247.0,-35.12,-7.46,1.27,3.9,0.36,-1.83,-14.54,-0.77,-0.09,16.33,100430.8,81.28,78.33,78.33,0.0,vol 6,2.797,77.81241379310345
359257.0,-35.29,-7.4,1.27,3.91,0.3,-1.99,-14.49,-0.8,-0.15,16.33,100413.98,82.69,78.76,78.76,0.0,vol 6,2.807,79.22241379310344
359267.0,-35.44,-7.34,1.26,3.9,0.29,-2.15,-14.44,-0.8,-0.21,16.33,100413.98,82.69,79.16,79.16,0.0,vol 6,2.817,79.22241379310344
359277.0,-35.57,-7.28,1.26,3.88,0.31,-2.29,-14.4,-0.78,-0.27,16.33,100413.98,82.69,79.51,79.51,0.0,vol 6,2.827,79.22241379310344
359287.0,-35.7,-7.23,1.26,3.87,0.33,-2.41,-14.37,-0.75,-0.32,16.33,100413.98,82.69,79.83,79.83,0.0,vol 6,2.837,79.22241379310344
359297.0,-35.79,-7.18,1.25,3.85,0.43,-2.52,-14.34,-0.69,-0.36,16.33,100397.74,84.05,80.25,80.25,0.0,vol 6,2.847,80.58241379310344
359307.0,-35.87,-7.15,1.25,3.82,0.52,-2.58,-14.33,-0.63,-0.38,16.33,100397.74,84.05,80.63,80.63,0.0,vol 6,2.857,80.58241379310344
359317.0,-35.93,-7.12,1.25,3.78,0.66,-2.61,-14.31,-0.56,-0.39,16.33,100397.74,84.05,80.97,80.97,0.0,vol 6,2.867,80.58241379310344
359327.0,-36.0,-7.08,1.24,3.74,0.82,-2.64,-14.3,-0.48,-0.38,16.33,100397.74,85.39,81.41,81.41,0.0,vol 6,2.877,81.92241379310344
359337.0,-36.07,-7.06,1.24,3.69,0.97,-2.6,-14.29,-0.4,-0.35,16.33,100381.73,85.39,81.81,81.81,0.0,vol 6,2.887,81.92241379310344
359347.0,-36.16,-7.08,1.24,3.64,1.04,-2.5,-14.28,-0.34,-0.29,16.33,100381.73,85.39,82.17,82.17,0.0,vol 6,2.897,81.92241379310344
359358.0,-36.28,-7.12,1.23,3.6,1.04,-2.36,-14.27,-0.29,-0.23,16.33,100381.73,85.39,82.49,82.49,0.0,vol 6,2.908,81.92241379310344
359368.0,-36.44,-7.18,1.23,3.55,0.98,-2.21,-14.24,-0.27,-0.17,16.33,100365.26,86.78,82.92,82.92,0.0,vol 6,2.918,83.31241379310345
359378.0,-36.62,-7.25,1.23,3.51,0.87,-2.07,-14.21,-0.27,-0.11,16.33,100365.26,86.78,83.31,83.31,0.0,vol 6,2.928,83.31241379310345
359388.0,-36.8,-7.29,1.23,3.47,0.79,-1.99,-14.18,-0.28,-0.07,16.33,100365.26,86.78,83.65,83.65,0.0,vol 6,2.938,83.31241379310345
359398.0,-36.98,-7.33,1.23,3.44,0.7,-1.93,-14.13,-0.31,-0.03,16.33,100365.26,86.78,83.97,83.97,0.0,vol 6,2.948,83.31241379310345
359408.0,-37.17,-7.33,1.23,3.43,0.6,-1.96,-14.09,-0.34,-0.01,16.33,100349.19,88.12,84.38,84.38,0.0,vol 6,2.958,84.65241379310345
359418.0,-37.34,-7.29,1.23,3.42,0.56,-2.05,-14.06,-0.37,0.0,16.33,100349.19,88.12,84.76,84.76,0.0,vol 6,2.968,84.65241379310345
359428.0,-37.54,-7.27,1.23,3.41,0.45,-2.14,-14.04,-0.39,0.01,16.33,100349.19,88.12,85.09,85.09,0.0,vol 6,2.978,84.65241379310345
359438.0,-37.75,-7.26,1.23,3.4,0.31,-2.17,-14.01,-0.4,0.0,16.33,100349.19,89.43,85.53,85.53,0.0,vol 6,2.988,85.96241379310345
359449.0,-37.91,-7.26,1.23,3.39,0.25,-2.18,-13.98,-0.41,-0.02,16.33,100333.67,89.43,85.92,85.92,0.0,vol 6,2.999,85.96241379310345
359459.0,-38.05,-7.26,1.23,3.37,0.28,-2.18,-13.96,-0.41,-0.04,16.33,100333.67,89.43,86.27,86.27,0.0,vol 6,3.009,85.96241379310345
359469.0,-38.13,-7.24,1.23,3.37,0.36,-2.21,-13.93,-0.4,-0.06,16.33,100333.67,89.43,86.58,86.58,0.0,vol 6,3.019,85.96241379310345
359479.0,-38.19,-7.24,1.23,3.34,0.5,-2.18,-13.89,-0.39,-0.07,16.33,100318.1,90.73,87.0,87.0,0.0,vol 6,3.029,87.26241379310345
359489.0,-38.26,-7.23,1.23,3.31,0.6,-2.17,-13.86,-0.39,-0.07,16.33,100318.1,90.73,87.37,87.37,0.0,vol 6,3.039,87.26241379310345
359500.0,-38.37,-7.23,1.23,3.29,0.66,-2.14,-13.83,-0.38,-0.06,16.33,100318.1,90.73,87.71,87.71,0.0,vol 6,3.05,87.26241379310345
359510.0,-38.48,-7.24,1.23,3.25,0.69,-2.08,-13.8,-0.38,-0.04,16.33,100318.1,90.73,88.01,88.01,0.0,vol 6,3.06,87.26241379310345
359520.0,-38.6,-7.3,1.23,3.22,0.68,-1.95,-13.76,-0.39,-0.03,16.33,100302.7,92.02,88.41,88.41,0.0,vol 6,3.07,88.55241379310344
359530.0,-38.75,-7.38,1.23,3.2,0.64,-1.8,-13.73,-0.41,-0.01,16.33,100302.7,92.02,88.77,88.77,0.0,vol 6,3.08,88.55241379310344
359540.0,-38.92,-7.45,1.23,3.19,0.57,-1.68,-13.72,-0.44,-0.01,16.33,100302.7,92.02,89.1,89.1,0.0,vol 6,3.09,88.55241379310344
359550.0,-39.1,-7.52,1.23,3.17,0.47,-1.58,-13.69,-0.48,-0.01,16.33,100287.46,93.3,89.52,89.52,0.0,vol 6,3.1,89.83241379310344
359560.0,-39.29,-7.56,1.23,3.16,0.38,-1.53,-13.65,-0.53,-0.03,16.33,100287.46,93.3,89.9,89.9,0.0,vol 6,3.11,89.83241379310344
359570.0,-39.47,-7.58,1.23,3.15,0.3,-1.52,-13.6,-0.57,-0.06,16.33,100287.46,93.3,90.24,90.24,0.0,vol 6,3.12,89.83241379310344
359580.0,-39.61,-7.58,1.22,3.14,0.3,-1.53,-13.55,-0.6,-0.1,16.33,100287.46,93.3,90.54,90.54,0.0,vol 6,3.13,89.83241379310344
359590.0,-39.68,-7.6,1.22,3.12,0.38,-1.47,-13.49,-0.63,-0.14,16.33,100272.56,94.55,90.94,90.94,0.0,vol 6,3.14,91.08241379310344
359600.0,-39.78,-7.64,1.22,3.1,0.41,-1.4,-13.44,-0.66,-0.18,16.33,100272.56,94.55,91.31,91.31,0.0,vol 6,3.15,91.08241379310344
359610.0,-39.9,-7.68,1.22,3.09,0.4,-1.34,-13.39,-0.69,-0.22,16.33,100272.56,94.55,91.63,91.63,0.0,vol 6,3.16,91.08241379310344
359620.0,-40.04,-7.72,1.22,3.07,0.38,-1.29,-13.34,-0.71,-0.26,16.33,100272.56,94.55,91.92,91.92,0.0,vol 6,3.17,91.08241379310344
359630.0,-40.2,-7.74,1.21,3.06,0.35,-1.26,-13.28,-0.74,-0.31,16.33,100258.05,95.77,92.31,92.31,0.0,vol 6,3.18,92.30241379310344
359640.0,-40.33,-7.75,1.21,3.06,0.33,-1.27,-13.23,-0.76,-0.36,16.33,100258.05,95.77,92.65,92.65,0.0,vol 6,3.19,92.30241379310344
359650.0,-40.45,-7.73,1.21,3.06,0.34,-1.31,-13.18,-0.77,-0.41,16.33,100258.05,95.77,92.97,92.97,0.0,vol 6,3.2,92.30241379310344
359660.0,-40.55,-7.69,1.2,3.05,0.39,-1.36,-13.13,-0.77,-0.46,16.33,100258.05,95.77,93.25,93.25,0.0,vol 6,3.21,92.30241379310344
359669.0,-40.63,-7.67,1.2,3.03,0.45,-1.39,-13.08,-0.77,-0.5,16.33,100243.48,97.0,93.62,93.62,0.0,vol 6,3.219,93.53241379310344
359679.0,-40.71,-7.65,1.19,3.03,0.51,-1.41,-13.04,-0.75,-0.54,16.33,100243.48,97.0,93.96,93.96,0.0,vol 6,3.229,93.53241379310344
359689.0,-40.79,-7.64,1.19,3.02,0.58,-1.4,-13.0,-0.73,-0.57,16.33,100243.48,97.0,94.26,94.26,0.0,vol 6,3.239,93.53241379310344
359699.0,-40.85,-7.62,1.18,3.01,0.68,-1.41,-12.97,-0.71,-0.59,16.33,100229.08,98.21,94.66,94.66,0.0,vol 6,3.249,94.74241379310344
359709.0,-40.91,-7.6,1.17,2.98,0.76,-1.4,-12.93,-0.68,-0.6,16.33,100229.08,98.21,95.01,95.01,0.0,vol 6,3.259,94.74241379310344
359719.0,-40.99,-7.6,1.17,2.95,0.82,-1.35,-12.9,-0.66,-0.6,16.33,100229.08,98.21,95.33,95.33,0.0,vol 6,3.269,94.74241379310344
359729.0,-41.08,-7.6,1.16,2.93,0.87,-1.33,-12.87,-0.65,-0.59,16.33,100229.08,98.21,95.62,95.62,0.0,vol 6,3.279,94.74241379310344
359739.0,-41.17,-7.6,1.16,2.9,0.9,-1.31,-12.84,-0.63,-0.57,16.33,100214.85,99.4,96.0,96.0,0.0,vol 6,3.289,95.93241379310344
359749.0,-41.28,-7.6,1.15,2.87,0.92,-1.28,-12.81,-0.63,-0.56,16.33,100214.85,99.4,96.34,96.34,0.0,vol 6,3.299,95.93241379310344
359759.0,-41.4,-7.62,1.14,2.85,0.91,-1.24,-12.78,-0.62,-0.54,16.33,100214.85,99.4,96.64,96.64,0.0,vol 6,3.309,95.93241379310344
359769.0,-41.53,-7.64,1.14,2.83,0.89,-1.23,-12.74,-0.62,-0.52,16.33,100214.85,99.4,96.92,96.92,0.0,vol 6,3.319,95.93241379310344
359779.0,-41.66,-7.63,1.13,2.82,0.88,-1.25,-12.71,-0.63,-0.5,16.33,100200.79,100.58,97.29,97.29,0.0,vol 6,3.329,97.11241379310344
359789.0,-41.77,-7.61,1.13,2.8,0.88,-1.28,-12.67,-0.63,-0.48,16.33,100200.79,100.58,97.62,97.62,0.0,vol 6,3.339,97.11241379310344
359799.0,-41.88,-7.58,1.13,2.77,0.89,-1.32,-12.64,-0.64,-0.47,16.33,100200.79,100.58,97.91,97.91,0.0,vol 6,3.349,97.11241379310344
359808.0,-42.01,-7.56,1.12,2.76,0.88,-1.36,-12.61,-0.64,-0.45,16.33,100200.79,101.75,98.3,98.3,0.0,vol 6,3.358,98.28241379310344
359818.0,-42.15,-7.54,1.12,2.74,0.85,-1.42,-12.58,-0.63,-0.44,16.33,100186.89,101.75,98.64,98.64,0.0,vol 6,3.368,98.28241379310344
359828.0,-42.3,-7.53,1.11,2.72,0.81,-1.48,-12.55,-0.63,-0.42,16.33,100186.89,101.75,98.95,98.95,0.0,vol 6,3.378,98.28241379310344
359838.0,-42.44,-7.5,1.11,2.7,0.79,-1.54,-12.51,-0.62,-0.41,16.33,100186.89,101.75,99.23,99.23,0.0,vol 6,3.388,98.28241379310344
359848.0,-42.57,-7.47,1.1,2.68,0.77,-1.59,-12.48,-0.6,-0.39,16.33,100173.56,102.87,99.6,99.6,0.0,vol 6,3.398,99.40241379310343
359858.0,-42.69,-7.45,1.1,2.66,0.77,-1.62,-12.45,-0.59,-0.38,16.33,100173.56,102.87,99.92,99.92,0.0,vol 6,3.408,99.40241379310343
359868.0,-42.79,-7.44,1.1,2.65,0.79,-1.63,-12.43,-0.57,-0.37,16.33,100173.56,102.87,100.22,100.22,0.0,vol 6,3.418,99.40241379310343
359878.0,-42.9,-7.43,1.09,2.63,0.81,-1.65,-12.4,-0.56,-0.35,16.33,100173.56,102.87,100.48,100.48,0.0,vol 6,3.428,99.40241379310343
359888.0,-43.03,-7.41,1.09,2.62,0.8,-1.68,-12.37,-0.54,-0.33,16.33,100159.83,104.02,100.84,100.84,0.0,vol 6,3.438,100.55241379310344
359898.0,-43.15,-7.39,1.09,2.6,0.79,-1.72,-12.34,-0.53,-0.31,16.33,100159.83,104.02,101.16,101.16,0.0,vol 6,3.448,100.55241379310344
359908.0,-43.25,-7.37,1.08,2.59,0.82,-1.75,-12.32,-0.51,-0.28,16.33,100159.83,104.02,101.44,101.44,0.0,vol 6,3.458,100.55241379310344
359918.0,-43.34,-7.35,1.08,2.58,0.86,-1.78,-12.3,-0.5,-0.26,16.33,100159.83,104.02,101.7,101.7,0.0,vol 6,3.468,100.55241379310344
359928.0,-43.44,-7.32,1.08,2.55,0.9,-1.8,-12.28,-0.48,-0.23,16.33,100146.6,105.13,102.04,102.04,0.0,vol 6,3.478,101.66241379310344
359938.0,-43.53,-7.3,1.08,2.52,0.92,-1.81,-12.26,-0.47,-0.19,16.33,100146.6,105.13,102.35,102.35,0.0,vol 6,3.488,101.66241379310344
359949.0,-43.63,-7.3,1.08,2.5,0.94,-1.79,-12.24,-0.46,-0.15,16.33,100146.6,105.13,102.63,102.63,0.0,vol 6,3.499,101.66241379310344
359958.0,-43.72,-7.31,1.08,2.47,0.96,-1.73,-12.22,-0.45,-0.11,16.33,100133.54,106.23,102.99,102.99,0.0,vol 6,3.508,102.76241379310343
359968.0,-43.83,-7.34,1.07,2.45,0.96,-1.68,-12.2,-0.46,-0.07,16.33,100133.54,106.23,103.31,103.31,0.0,vol 6,3.518,102.76241379310343
359978.0,-43.95,-7.36,1.07,2.43,0.94,-1.63,-12.18,-0.47,-0.03,16.33,100133.54,106.23,103.61,103.61,0.0,vol 6,3.528,102.76241379310343
359988.0,-44.07,-7.39,1.07,2.41,0.93,-1.58,-12.16,-0.49,0.0,16.33,100133.54,106.23,103.87,103.87,0.0,vol 6,3.538,102.76241379310343
359998.0,-44.19,-7.4,1.07,2.39,0.91,-1.56,-12.14,-0.51,0.03,16.33,100120.65,107.32,104.21,104.21,0.0,vol 6,3.548,103.85241379310344
360009.0,-44.34,-7.41,1.08,2.37,0.87,-1.55,-12.11,-0.55,0.06,16.33,100120.65,107.32,104.52,104.52,0.0,vol 6,3.559,103.85241379310344
360019.0,-44.49,-7.43,1.08,2.37,0.83,-1.55,-12.08,-0.58,0.08,16.33,100120.65,107.32,104.8,104.8,0.0,vol 6,3.569,103.85241379310344
360029.0,-44.61,-7.43,1.08,2.35,0.8,-1.55,-12.06,-0.62,0.09,16.33,100120.65,107.32,105.05,105.05,0.0,vol 6,3.579,103.85241379310344
360039.0,-44.78,-7.45,1.08,2.33,0.75,-1.55,-12.02,-0.66,0.09,16.33,100108.09,108.37,105.39,105.39,0.0,vol 6,3.589,104.90241379310343
360050.0,-44.93,-7.46,1.08,2.33,0.71,-1.55,-11.99,-0.69,0.09,16.33,100108.09,108.37,105.68,105.68,0.0,vol 6,3.6,104.90241379310343
360060.0,-45.06,-7.46,1.08,2.32,0.69,-1.58,-11.95,-0.72,0.08,16.33,100108.09,108.37,105.95,105.95,0.0,vol 6,3.61,104.90241379310343
360070.0,-45.21,-7.46,1.08,2.32,0.65,-1.59,-11.92,-0.75,0.07,16.33,100096.03,109.38,106.3,106.3,0.0,vol 6,3.62,105.91241379310344
360080.0,-45.33,-7.45,1.08,2.31,0.62,-1.62,-11.88,-0.78,0.05,16.33,100096.03,109.38,106.61,106.61,0.0,vol 6,3.63,105.91241379310344
360090.0,-45.45,-7.45,1.08,2.3,0.62,-1.64,-11.84,-0.8,0.03,16.33,100096.03,109.38,106.88,106.88,0.0,vol 6,3.64,105.91241379310344
360100.0,-45.55,-7.44,1.08,2.28,0.64,-1.64,-11.8,-0.82,0.01,16.33,100096.03,109.38,107.13,107.13,0.0,vol 6,3.65,105.91241379310344
360109.0,-45.65,-7.45,1.08,2.29,0.65,-1.65,-11.77,-0.83,-0.02,16.34,100084.05,110.39,107.46,107.46,0.0,vol 6,3.659,106.92241379310344
360119.0,-45.74,-7.45,1.08,2.27,0.68,-1.64,-11.74,-0.84,-0.04,16.34,100084.05,110.39,107.75,107.75,0.0,vol 6,3.669,106.92241379310344
360129.0,-45.83,-7.45,1.08,2.26,0.7,-1.63,-11.7,-0.84,-0.06,16.34,100084.05,110.39,108.02,108.02,0.0,vol 6,3.679,106.92241379310344
360139.0,-45.92,-7.45,1.08,2.25,0.73,-1.62,-11.67,-0.85,-0.08,16.34,100084.05,110.39,108.25,108.25,0.0,vol 6,3.689,106.92241379310344
360150.0,-46.0,-7.46,1.08,2.24,0.76,-1.6,-11.64,-0.85,-0.09,16.34,100071.82,111.42,108.57,108.57,0.0,vol 6,3.7,107.95241379310345
360160.0,-46.1,-7.46,1.08,2.23,0.77,-1.59,-11.6,-0.86,-0.1,16.34,100071.82,111.42,108.86,108.86,0.0,vol 6,3.71,107.95241379310345
360170.0,-46.21,-7.47,1.08,2.23,0.78,-1.59,-11.57,-0.86,-0.11,16.34,100071.82,111.42,109.11,109.11,0.0,vol 6,3.72,107.95241379310345
360179.0,-46.32,-7.47,1.07,2.21,0.78,-1.58,-11.53,-0.86,-0.12,16.34,100071.82,112.45,109.45,109.45,0.0,vol 6,3.729,108.98241379310343
360189.0,-46.42,-7.48,1.07,2.21,0.79,-1.57,-11.5,-0.86,-0.13,16.34,100059.59,112.45,109.75,109.75,0.0,vol 6,3.739,108.98241379310343
360199.0,-46.52,-7.5,1.07,2.2,0.79,-1.55,-11.47,-0.86,-0.14,16.34,100059.59,112.45,110.02,110.02,0.0,vol 6,3.749,108.98241379310343
360209.0,-46.64,-7.51,1.07,2.18,0.77,-1.54,-11.44,-0.86,-0.15,16.34,100059.59,112.45,110.26,110.26,0.0,vol 6,3.759,108.98241379310343
360219.0,-46.78,-7.51,1.07,2.17,0.73,-1.56,-11.41,-0.86,-0.15,16.34,100047.71,113.45,110.58,110.58,0.0,vol 6,3.769,109.98241379310343
360229.0,-46.91,-7.5,1.07,2.17,0.71,-1.6,-11.38,-0.85,-0.16,16.34,100047.71,113.45,110.87,110.87,0.0,vol 6,3.779,109.98241379310343
360239.0,-47.02,-7.49,1.07,2.16,0.71,-1.62,-11.35,-0.84,-0.17,16.34,100047.71,113.45,111.12,111.12,0.0,vol 6,3.789,109.98241379310343
360249.0,-47.14,-7.48,1.06,2.15,0.7,-1.64,-11.32,-0.83,-0.18,16.34,100047.71,113.45,111.36,111.36,0.0,vol 6,3.799,109.98241379310343
360259.0,-47.25,-7.47,1.06,2.12,0.69,-1.66,-11.28,-0.81,-0.19,16.34,100035.98,114.43,111.66,111.66,0.0,vol 6,3.809,110.96241379310344
360269.0,-47.37,-7.46,1.06,2.11,0.68,-1.68,-11.25,-0.8,-0.2,16.34,100035.98,114.43,111.94,111.94,0.0,vol 6,3.819,110.96241379310344
360279.0,-47.49,-7.45,1.06,2.09,0.66,-1.7,-11.23,-0.77,-0.2,16.34,100035.98,114.43,112.19,112.19,0.0,vol 6,3.829,110.96241379310344
360289.0,-47.6,-7.45,1.06,2.08,0.66,-1.71,-11.2,-0.75,-0.2,16.34,100035.98,114.43,112.41,112.41,0.0,vol 6,3.839,110.96241379310344
360299.0,-47.72,-7.45,1.05,2.07,0.64,-1.71,-11.18,-0.73,-0.21,16.34,100024.6,115.39,112.71,112.71,0.0,vol 6,3.849,111.92241379310344
360309.0,-47.84,-7.45,1.05,2.05,0.63,-1.72,-11.15,-0.7,-0.21,16.34,100024.6,115.39,112.98,112.98,0.0,vol 6,3.859,111.92241379310344
360319.0,-47.95,-7.43,1.05,2.03,0.6,-1.74,-11.12,-0.68,-0.21,16.34,100024.6,115.39,113.22,113.22,0.0,vol 6,3.869,111.92241379310344
360329.0,-48.09,-7.42,1.05,2.01,0.57,-1.76,-11.1,-0.65,-0.2,16.34,100024.6,116.32,113.53,113.53,0.0,vol 6,3.879,112.85241379310344
360339.0,-48.22,-7.42,1.05,1.99,0.55,-1.77,-11.07,-0.62,-0.2,16.34,100013.62,116.32,113.81,113.81,0.0,vol 6,3.889,112.85241379310344
360349.0,-48.34,-7.41,1.04,1.97,0.53,-1.78,-11.04,-0.6,-0.2,16.34,100013.62,116.32,114.06,114.06,0.0,vol 6,3.899,112.85241379310344
360360.0,-48.45,-7.4,1.04,1.95,0.52,-1.78,-11.0,-0.56,-0.19,16.34,100013.62,116.32,114.29,114.29,0.0,vol 6,3.91,112.85241379310344
360370.0,-48.57,-7.4,1.04,1.93,0.51,-1.79,-10.97,-0.54,-0.18,16.34,100002.4,117.26,114.58,114.58,0.0,vol 6,3.92,113.79241379310344
360380.0,-48.69,-7.39,1.04,1.92,0.5,-1.79,-10.94,-0.51,-0.17,16.34,100002.4,117.26,114.85,114.85,0.0,vol 6,3.93,113.79241379310344
360390.0,-48.8,-7.38,1.04,1.91,0.49,-1.81,-10.9,-0.48,-0.16,16.34,100002.4,117.26,115.09,115.09,0.0,vol 6,3.94,113.79241379310344
360400.0,-48.91,-7.38,1.04,1.91,0.48,-1.83,-10.87,-0.46,-0.14,16.34,100002.4,117.26,115.31,115.31,0.0,vol 6,3.95,113.79241379310344
360410.0,-49.03,-7.36,1.03,1.9,0.47,-1.85,-10.84,-0.44,-0.12,16.34,99991.52,118.18,115.6,115.6,0.0,vol 6,3.96,114.71241379310344
360420.0,-49.13,-7.34,1.03,1.89,0.48,-1.89,-10.81,-0.41,-0.1,16.34,99991.52,118.18,115.85,115.85,0.0,vol 6,3.97,114.71241379310344
360430.0,-49.23,-7.34,1.03,1.89,0.47,-1.89,-10.78,-0.39,-0.08,16.34,99991.52,118.18,116.09,116.09,0.0,vol 6,3.98,114.71241379310344
360440.0,-49.34,-7.33,1.03,1.87,0.45,-1.9,-10.76,-0.37,-0.06,16.34,99991.52,119.08,116.38,116.38,0.0,vol 6,3.99,115.61241379310344
360450.0,-49.45,-7.32,1.03,1.85,0.45,-1.9,-10.73,-0.35,-0.03,16.34,99980.8,119.08,116.65,116.65,0.0,vol 6,4.0,115.61241379310344
360460.0,-49.55,-7.31,1.03,1.82,0.45,-1.89,-10.7,-0.33,-0.01,16.34,99980.8,119.08,116.9,116.9,0.0,vol 6,4.01,115.61241379310344
360470.0,-49.65,-7.31,1.03,1.81,0.46,-1.88,-10.67,-0.31,0.02,16.34,99980.8,119.08,117.11,117.11,0.0,vol 6,4.02,115.61241379310344
360480.0,-49.72,-7.31,1.03,1.79,0.48,-1.87,-10.64,-0.3,0.05,16.34,99970.25,119.96,117.4,117.4,0.0,vol 6,4.03,116.49241379310344
360490.0,-49.8,-7.32,1.03,1.78,0.5,-1.83,-10.62,-0.29,0.08,16.34,99970.25,119.96,117.66,117.66,0.0,vol 6,4.04,116.49241379310344
360499.0,-49.88,-7.33,1.03,1.77,0.52,-1.81,-10.59,-0.28,0.12,16.34,99970.25,119.96,117.89,117.89,0.0,vol 6,4.049,116.49241379310344
360509.0,-49.97,-7.35,1.04,1.76,0.52,-1.77,-10.56,-0.28,0.15,16.34,99970.25,119.96,118.09,118.09,0.0,vol 6,4.059,116.49241379310344
360520.0,-50.07,-7.38,1.04,1.76,0.53,-1.72,-10.52,-0.29,0.19,16.34,99959.88,120.84,118.37,118.37,0.0,vol 6,4.07,117.37241379310343
360530.0,-50.17,-7.39,1.04,1.74,0.53,-1.68,-10.49,-0.3,0.22,16.34,99959.88,120.84,118.62,118.62,0.0,vol 6,4.08,117.37241379310343
360540.0,-50.26,-7.41,1.04,1.72,0.52,-1.65,-10.46,-0.32,0.25,16.34,99959.88,120.84,118.84,118.84,0.0,vol 6,4.09,117.37241379310343
360550.0,-50.37,-7.42,1.04,1.71,0.51,-1.62,-10.44,-0.34,0.27,16.34,99959.88,121.7,119.12,119.12,0.0,vol 6,4.1,118.23241379310343
360561.0,-50.48,-7.43,1.05,1.7,0.49,-1.6,-10.4,-0.37,0.3,16.34,99950.05,121.66,119.38,119.38,0.0,vol 6,4.111,118.19241379310344
360571.0,-50.58,-7.43,1.05,1.68,0.48,-1.58,-10.37,-0.4,0.31,16.34,99950.05,121.66,119.61,119.61,0.0,vol 6,4.121,118.19241379310344
360580.0,-50.69,-7.44,1.05,1.67,0.47,-1.57,-10.34,-0.43,0.33,16.34,99950.05,121.66,119.81,119.81,0.0,vol 6,4.13,118.19241379310344
360590.0,-50.82,-7.46,1.06,1.66,0.44,-1.55,-10.31,-0.46,0.34,16.34,99940.01,122.51,120.08,120.08,0.0,vol 6,4.14,119.04241379310344
360601.0,-50.94,-7.45,1.06,1.64,0.41,-1.56,-10.27,-0.5,0.34,16.34,99940.01,122.51,120.33,120.33,0.0,vol 6,4.151,119.04241379310344
360610.0,-51.07,-7.46,1.06,1.63,0.38,-1.55,-10.24,-0.53,0.34,16.34,99940.01,122.51,120.54,120.54,0.0,vol 6,4.16,119.04241379310344
360620.0,-51.18,-7.47,1.07,1.63,0.36,-1.55,-10.2,-0.56,0.34,16.34,99940.01,122.51,120.74,120.74,0.0,vol 6,4.17,119.04241379310344
360630.0,-51.3,-7.48,1.07,1.61,0.34,-1.54,-10.17,-0.59,0.33,16.34,99930.47,123.31,121.0,121.0,0.0,vol 6,4.18,119.84241379310345
360641.0,-51.42,-7.48,1.07,1.61,0.32,-1.54,-10.14,-0.62,0.32,16.34,99930.47,123.31,121.23,121.23,0.0,vol 6,4.191,119.84241379310345
360651.0,-51.54,-7.5,1.08,1.6,0.3,-1.53,-10.1,-0.64,0.3,16.34,99930.47,123.31,121.44,121.44,0.0,vol 6,4.201,119.84241379310345
360661.0,-51.68,-7.5,1.08,1.59,0.26,-1.53,-10.06,-0.67,0.28,16.34,99930.47,123.31,121.63,121.63,0.0,vol 6,4.211,119.84241379310345
360671.0,-51.79,-7.5,1.08,1.59,0.24,-1.54,-10.03,-0.69,0.25,16.34,99921.09,124.1,121.87,121.87,0.0,vol 6,4.221,120.63241379310344
360681.0,-51.9,-7.5,1.09,1.58,0.23,-1.54,-9.99,-0.71,0.22,16.34,99921.09,124.1,122.1,122.1,0.0,vol 6,4.231,120.63241379310344
360691.0,-52.0,-7.5,1.09,1.58,0.22,-1.54,-9.96,-0.72,0.19,16.34,99921.09,124.1,122.3,122.3,0.0,vol 6,4.241,120.63241379310344
360700.0,-52.09,-7.52,1.09,1.58,0.22,-1.53,-9.93,-0.73,0.16,16.34,99912.11,124.86,122.55,122.55,0.0,vol 6,4.25,121.39241379310344
360710.0,-52.19,-7.54,1.09,1.58,0.22,-1.52,-9.89,-0.74,0.13,16.34,99912.11,124.86,122.78,122.78,0.0,vol 6,4.26,121.39241379310344
360720.0,-52.27,-7.54,1.09,1.58,0.23,-1.52,-9.86,-0.74,0.1,16.34,99912.11,124.86,122.99,122.99,0.0,vol 6,4.27,121.39241379310344
360730.0,-52.37,-7.55,1.09,1.57,0.23,-1.5,-9.83,-0.74,0.07,16.34,99912.11,124.86,123.18,123.18,0.0,vol 6,4.28,121.39241379310344
360740.0,-52.45,-7.56,1.09,1.56,0.24,-1.48,-9.8,-0.74,0.04,16.34,99902.73,125.65,123.42,123.42,0.0,vol 6,4.29,122.18241379310344
360750.0,-52.53,-7.58,1.09,1.55,0.25,-1.47,-9.76,-0.73,0.01,16.34,99902.73,125.65,123.65,123.65,0.0,vol 6,4.3,122.18241379310344
360760.0,-52.6,-7.6,1.09,1.55,0.27,-1.45,-9.73,-0.72,-0.01,16.34,99902.73,125.65,123.85,123.85,0.0,vol 6,4.31,122.18241379310344
360770.0,-52.68,-7.62,1.09,1.55,0.28,-1.42,-9.7,-0.71,-0.04,16.34,99902.73,125.65,124.03,124.03,0.0,vol 6,4.32,122.18241379310344
360780.0,-52.75,-7.65,1.09,1.55,0.29,-1.39,-9.67,-0.71,-0.06,16.34,99893.69,126.41,124.27,124.27,0.0,vol 6,4.33,122.94241379310344
360790.0,-52.84,-7.68,1.09,1.54,0.29,-1.35,-9.64,-0.7,-0.08,16.34,99893.69,126.41,124.48,124.48,0.0,vol 6,4.34,122.94241379310344
360800.0,-52.95,-7.72,1.09,1.54,0.27,-1.32,-9.61,-0.69,-0.1,16.34,99893.69,126.41,124.67,124.67,0.0,vol 6,4.35,122.94241379310344
360810.0,-53.07,-7.74,1.09,1.54,0.25,-1.3,-9.58,-0.69,-0.12,16.34,99893.69,127.14,124.92,124.92,0.0,vol 6,4.36,123.67241379310344
360820.0,-53.18,-7.77,1.09,1.54,0.23,-1.28,-9.55,-0.68,-0.14,16.34,99884.98,127.14,125.14,125.14,0.0,vol 6,4.37,123.67241379310344
360830.0,-53.3,-7.79,1.09,1.53,0.2,-1.26,-9.52,-0.67,-0.16,16.34,99884.98,127.14,125.34,125.34,0.0,vol 6,4.38,123.67241379310344
360840.0,-53.44,-7.81,1.08,1.53,0.16,-1.25,-9.49,-0.66,-0.18,16.34,99884.98,127.14,125.52,125.52,0.0,vol 6,4.39,123.67241379310344
360850.0,-53.57,-7.81,1.08,1.52,0.12,-1.25,-9.45,-0.66,-0.2,16.34,99876.11,127.89,125.76,125.76,0.0,vol 6,4.4,124.42241379310344
360860.0,-53.69,-7.83,1.08,1.52,0.1,-1.24,-9.42,-0.64,-0.22,16.34,99876.11,127.89,125.97,125.97,0.0,vol 6,4.41,124.42241379310344
360870.0,-53.8,-7.84,1.08,1.52,0.08,-1.24,-9.38,-0.63,-0.25,16.34,99876.11,127.89,126.16,126.16,0.0,vol 6,4.42,124.42241379310344
360879.0,-53.91,-7.86,1.07,1.52,0.06,-1.23,-9.34,-0.62,-0.28,16.34,99876.11,127.89,126.34,126.34,0.0,vol 6,4.429,124.42241379310344
360889.0,-54.02,-7.87,1.07,1.52,0.04,-1.23,-9.3,-0.6,-0.3,16.34,99867.58,128.61,126.56,126.56,0.0,vol 6,4.439,125.14241379310346
360899.0,-54.12,-7.88,1.07,1.53,0.03,-1.23,-9.26,-0.59,-0.33,16.34,99867.58,128.61,126.77,126.77,0.0,vol 6,4.449,125.14241379310346
360909.0,-54.22,-7.89,1.06,1.53,0.02,-1.22,-9.22,-0.57,-0.35,16.34,99867.58,128.61,126.95,126.95,0.0,vol 6,4.459,125.14241379310346
360919.0,-54.32,-7.89,1.06,1.53,0.01,-1.22,-9.18,-0.55,-0.37,16.34,99867.58,128.61,127.12,127.12,0.0,vol 6,4.469,125.14241379310346
360929.0,-54.43,-7.88,1.06,1.52,-0.01,-1.24,-9.14,-0.53,-0.39,16.34,99859.2,129.31,127.34,127.34,0.0,vol 6,4.479,125.84241379310345
360939.0,-54.51,-7.86,1.05,1.51,-0.01,-1.25,-9.1,-0.5,-0.41,16.34,99859.2,129.31,127.54,127.54,0.0,vol 6,4.489,125.84241379310345
360949.0,-54.61,-7.85,1.05,1.51,-0.01,-1.27,-9.06,-0.47,-0.43,16.34,99859.2,129.31,127.71,127.71,0.0,vol 6,4.499,125.84241379310345
360959.0,-54.69,-7.83,1.04,1.5,-0.01,-1.28,-9.02,-0.44,-0.44,16.34,99859.2,129.99,127.94,127.94,0.0,vol 6,4.509,126.52241379310344
360969.0,-54.77,-7.81,1.04,1.5,-0.0,-1.31,-8.98,-0.4,-0.46,16.35,99851.23,129.99,128.15,128.15,0.0,vol 6,4.519,126.52241379310344
360979.0,-54.85,-7.79,1.03,1.49,0.0,-1.33,-8.94,-0.37,-0.46,16.35,99851.23,129.99,128.33,128.33,0.0,vol 6,4.529,126.52241379310344
360989.0,-54.91,-7.78,1.03,1.49,0.02,-1.35,-8.91,-0.33,-0.47,16.35,99851.23,129.99,128.49,128.49,0.0,vol 6,4.539,126.52241379310344
360999.0,-54.98,-7.76,1.03,1.47,0.03,-1.36,-8.87,-0.29,-0.47,16.35,99843.19,130.66,128.71,128.71,0.0,vol 6,4.549,127.19241379310344
361008.0,-55.01,-7.74,1.02,1.47,0.08,-1.37,-8.84,-0.25,-0.46,16.35,99843.19,130.66,128.91,128.91,0.0,vol 6,4.558,127.19241379310344
361018.0,-55.06,-7.72,1.02,1.45,0.11,-1.38,-8.81,-0.21,-0.45,16.35,99843.19,130.66,129.08,129.08,0.0,vol 6,4.568,127.19241379310344
361029.0,-55.11,-7.71,1.01,1.44,0.14,-1.39,-8.78,-0.16,-0.43,16.35,99843.19,130.66,129.24,129.24,0.0,vol 6,4.579,127.19241379310344
361039.0,-55.15,-7.7,1.01,1.44,0.18,-1.4,-8.75,-0.12,-0.4,16.35,99835.32,131.33,129.45,129.45,0.0,vol 6,4.589,127.86241379310346
361050.0,-55.19,-7.69,1.0,1.42,0.22,-1.39,-8.73,-0.08,-0.37,16.35,99835.32,131.33,129.64,129.64,0.0,vol 6,4.6,127.86241379310346
361060.0,-55.24,-7.67,1.0,1.41,0.25,-1.39,-8.7,-0.05,-0.34,16.35,99835.32,131.33,129.81,129.81,0.0,vol 6,4.61,127.86241379310346
361070.0,-55.29,-7.66,1.0,1.38,0.28,-1.37,-8.68,-0.02,-0.29,16.35,99835.32,131.96,130.02,130.02,0.0,vol 6,4.62,128.49241379310345
361080.0,-55.36,-7.66,1.0,1.36,0.29,-1.36,-8.66,0.01,-0.24,16.35,99827.8,131.96,130.22,130.22,0.0,vol 6,4.63,128.49241379310345
361090.0,-55.42,-7.67,0.99,1.36,0.3,-1.33,-8.63,0.03,-0.19,16.35,99827.8,131.96,130.39,130.39,0.0,vol 6,4.64,128.49241379310345
361100.0,-55.48,-7.66,0.99,1.34,0.32,-1.32,-8.61,0.04,-0.14,16.35,99827.8,131.96,130.55,130.55,0.0,vol 6,4.65,128.49241379310345
361110.0,-55.54,-7.67,0.99,1.33,0.33,-1.3,-8.6,0.05,-0.1,16.35,99820.26,132.6,130.75,130.75,0.0,vol 6,4.66,129.13241379310344
361119.0,-55.63,-7.68,0.99,1.31,0.32,-1.27,-8.58,0.05,-0.05,16.35,99820.26,132.6,130.94,130.94,0.0,vol 6,4.669,129.13241379310344
361129.0,-55.7,-7.68,0.99,1.3,0.33,-1.25,-8.56,0.04,0.0,16.35,99820.26,132.6,131.1,131.1,0.0,vol 6,4.679,129.13241379310344
361139.0,-55.78,-7.69,0.99,1.29,0.32,-1.23,-8.54,0.03,0.05,16.35,99820.26,132.6,131.25,131.25,0.0,vol 6,4.689,129.13241379310344
361149.0,-55.86,-7.71,0.99,1.28,0.32,-1.21,-8.52,0.02,0.1,16.35,99813.63,133.15,131.44,131.44,0.0,vol 6,4.699,129.68241379310345
361159.0,-55.95,-7.71,0.99,1.27,0.31,-1.19,-8.5,-0.0,0.14,16.35,99813.63,133.15,131.61,131.61,0.0,vol 6,4.709,129.68241379310345
361169.0,-56.03,-7.71,1.0,1.27,0.31,-1.19,-8.47,-0.03,0.18,16.35,99813.63,133.15,131.77,131.77,0.0,vol 6,4.719,129.68241379310345
361181.0,-56.13,-7.7,1.0,1.26,0.3,-1.19,-8.45,-0.06,0.22,16.35,99813.63,133.75,131.97,131.97,0.0,vol 6,4.731,130.28241379310344
361191.0,-56.23,-7.69,1.0,1.24,0.29,-1.2,-8.42,-0.09,0.26,16.35,99806.59,133.75,132.14,132.14,0.0,vol 6,4.741,130.28241379310344
361201.0,-56.33,-7.7,1.0,1.24,0.28,-1.19,-8.4,-0.13,0.29,16.35,99806.59,133.75,132.3,132.3,0.0,vol 6,4.751,130.28241379310344
361211.0,-56.4,-7.69,1.01,1.24,0.28,-1.2,-8.37,-0.16,0.32,16.35,99806.59,133.75,132.45,132.45,0.0,vol 6,4.761,130.28241379310344
361221.0,-56.51,-7.69,1.01,1.24,0.26,-1.21,-8.35,-0.2,0.34,16.35,99799.55,134.34,132.64,132.64,0.0,vol 6,4.771,130.87241379310345
361231.0,-56.62,-7.7,1.01,1.24,0.24,-1.2,-8.32,-0.23,0.36,16.35,99799.55,134.34,132.81,132.81,0.0,vol 6,4.781,130.87241379310345
361241.0,-56.73,-7.69,1.02,1.23,0.22,-1.2,-8.3,-0.26,0.38,16.35,99799.55,134.34,132.96,132.96,0.0,vol 6,4.791,130.87241379310345
361251.0,-56.82,-7.71,1.02,1.23,0.2,-1.19,-8.28,-0.3,0.39,16.35,99799.55,134.34,133.1,133.1,0.0,vol 6,4.801,130.87241379310345
361261.0,-56.92,-7.7,1.03,1.23,0.19,-1.2,-8.25,-0.33,0.4,16.35,99792.86,134.9,133.28,133.28,0.0,vol 6,4.811,131.43241379310345
361271.0,-57.0,-7.7,1.03,1.23,0.19,-1.2,-8.23,-0.36,0.4,16.35,99792.86,134.9,133.44,133.44,0.0,vol 6,4.821,131.43241379310345
361281.0,-57.09,-7.7,1.03,1.21,0.18,-1.2,-8.2,-0.4,0.4,16.35,99792.86,134.9,133.59,133.59,0.0,vol 6,4.831,131.43241379310345
361291.0,-57.16,-7.72,1.04,1.21,0.18,-1.18,-8.18,-0.43,0.4,16.35,99792.86,134.9,133.72,133.72,0.0,vol 6,4.841,131.43241379310345
361301.0,-57.23,-7.71,1.04,1.2,0.19,-1.18,-8.15,-0.46,0.39,16.35,99786.33,135.45,133.89,133.89,0.0,vol 6,4.851,131.98241379310343
361311.0,-57.32,-7.73,1.05,1.2,0.18,-1.16,-8.13,-0.49,0.39,16.35,99786.33,135.45,134.05,134.05,0.0,vol 6,4.861,131.98241379310343
361321.0,-57.39,-7.73,1.05,1.19,0.18,-1.16,-8.11,-0.52,0.38,16.35,99786.33,135.45,134.19,134.19,0.0,vol 6,4.871,131.98241379310343
361331.0,-57.47,-7.73,1.05,1.2,0.18,-1.17,-8.08,-0.54,0.37,16.35,99779.8,136.01,134.37,134.37,0.0,vol 6,4.881,132.54241379310344
361341.0,-57.54,-7.72,1.06,1.18,0.18,-1.17,-8.06,-0.57,0.36,16.35,99779.8,136.01,134.53,134.53,0.0,vol 6,4.891,132.54241379310344
361351.0,-57.61,-7.74,1.06,1.18,0.19,-1.15,-8.03,-0.6,0.34,16.35,99779.8,136.01,134.68,134.68,0.0,vol 6,4.901,132.54241379310344
361360.0,-57.67,-7.76,1.06,1.17,0.2,-1.13,-8.01,-0.62,0.33,16.35,99779.8,136.01,134.81,134.81,0.0,vol 6,4.91,132.54241379310344
361371.0,-57.74,-7.75,1.07,1.16,0.2,-1.14,-7.99,-0.64,0.31,16.35,99774.0,136.49,134.98,134.98,0.0,vol 6,4.921,133.02241379310345
361381.0,-57.81,-7.78,1.07,1.17,0.2,-1.13,-7.96,-0.67,0.29,16.35,99774.0,136.49,135.13,135.13,0.0,vol 6,4.931,133.02241379310345
361390.0,-57.88,-7.79,1.07,1.16,0.21,-1.12,-7.94,-0.68,0.27,16.35,99774.0,136.49,135.27,135.27,0.0,vol 6,4.94,133.02241379310345
361400.0,-57.96,-7.82,1.07,1.17,0.21,-1.1,-7.92,-0.7,0.25,16.35,99774.0,136.49,135.39,135.39,0.0,vol 6,4.95,133.02241379310345
361410.0,-58.05,-7.84,1.08,1.17,0.2,-1.09,-7.9,-0.72,0.23,16.35,99767.81,137.02,135.55,135.55,0.0,vol 6,4.96,133.55241379310343
361420.0,-58.15,-7.85,1.08,1.17,0.18,-1.08,-7.89,-0.74,0.21,16.35,99767.81,137.02,135.7,135.7,0.0,vol 6,4.97,133.55241379310343
361430.0,-58.23,-7.88,1.08,1.17,0.17,-1.06,-7.86,-0.76,0.19,16.35,99767.81,137.02,135.83,135.83,0.0,vol 6,4.98,133.55241379310343
361440.0,-58.32,-7.91,1.08,1.18,0.16,-1.05,-7.84,-0.77,0.16,16.35,99767.81,137.51,136.0,136.0,0.0,vol 6,4.99,134.04241379310344
361450.0,-58.41,-7.93,1.08,1.18,0.15,-1.04,-7.82,-0.79,0.14,16.35,99761.95,137.51,136.15,136.15,0.0,vol 6,5.0,134.04241379310344
361460.0,-58.51,-7.95,1.08,1.17,0.13,-1.02,-7.8,-0.8,0.11,16.35,99761.95,137.51,136.29,136.29,0.0,vol 6,5.01,134.04241379310344
361470.0,-58.62,-7.97,1.09,1.18,0.11,-1.02,-7.78,-0.81,0.08,16.35,99761.95,137.51,136.41,136.41,0.0,vol 6,5.02,134.04241379310344
361481.0,-58.75,-7.99,1.09,1.18,0.07,-1.02,-7.75,-0.82,0.04,16.35,99756.09,138.0,136.57,136.57,0.0,vol 6,5.031,134.53241379310344
361491.0,-58.85,-8.0,1.09,1.18,0.05,-1.02,-7.73,-0.83,0.01,16.35,99756.09,138.0,136.71,136.71,0.0,vol 6,5.041,134.53241379310344
361501.0,-58.94,-7.99,1.09,1.18,0.04,-1.03,-7.7,-0.83,-0.03,16.35,99756.09,138.0,136.84,136.84,0.0,vol 6,5.051,134.53241379310344
361511.0,-59.01,-8.0,1.08,1.18,0.05,-1.03,-7.68,-0.83,-0.07,16.35,99756.09,138.0,136.96,136.96,0.0,vol 6,5.061,134.53241379310344
361521.0,-59.08,-8.01,1.08,1.19,0.05,-1.03,-7.66,-0.83,-0.11,16.35,99750.56,138.47,137.11,137.11,0.0,vol 6,5.071,135.00241379310344
361532.0,-59.18,-8.03,1.08,1.19,0.03,-1.03,-7.63,-0.82,-0.15,16.35,99750.56,138.47,137.24,137.24,0.0,vol 6,5.082,135.00241379310344
361542.0,-59.26,-8.04,1.08,1.18,0.03,-1.02,-7.61,-0.81,-0.18,16.35,99750.56,138.47,137.37,137.37,0.0,vol 6,5.092,135.00241379310344
361552.0,-59.33,-8.04,1.08,1.19,0.03,-1.03,-7.58,-0.8,-0.22,16.35,99750.56,138.87,137.52,137.52,0.0,vol 6,5.102,135.40241379310345
361562.0,-59.42,-8.04,1.08,1.18,0.02,-1.03,-7.56,-0.79,-0.25,16.35,99745.77,138.87,137.65,137.65,0.0,vol 6,5.112,135.40241379310345
361572.0,-59.51,-8.04,1.07,1.18,0.01,-1.04,-7.54,-0.77,-0.28,16.35,99745.77,138.87,137.78,137.78,0.0,vol 6,5.122,135.40241379310345
361582.0,-59.62,-8.04,1.07,1.18,-0.01,-1.04,-7.52,-0.75,-0.31,16.35,99745.77,138.87,137.89,137.89,0.0,vol 6,5.132,135.40241379310345
361592.0,-59.72,-8.04,1.07,1.18,-0.03,-1.05,-7.5,-0.73,-0.34,16.35,99740.58,139.31,138.03,138.03,0.0,vol 6,5.142,135.84241379310345
361602.0,-59.82,-8.05,1.06,1.17,-0.05,-1.04,-7.47,-0.7,-0.37,16.35,99740.58,139.31,138.16,138.16,0.0,vol 6,5.152,135.84241379310345
361612.0,-59.9,-8.07,1.06,1.16,-0.06,-1.02,-7.45,-0.68,-0.4,16.35,99740.58,139.31,138.27,138.27,0.0,vol 6,5.162,135.84241379310345
361622.0,-59.98,-8.08,1.05,1.16,-0.07,-1.02,-7.42,-0.65,-0.43,16.35,99740.58,139.31,138.38,138.38,0.0,vol 6,5.172,135.84241379310345
361632.0,-60.09,-8.1,1.05,1.16,-0.09,-1.0,-7.4,-0.62,-0.45,16.35,99735.56,139.73,138.51,138.51,0.0,vol 6,5.182,136.26241379310343
361642.0,-60.18,-8.11,1.05,1.16,-0.11,-0.99,-7.37,-0.59,-0.48,16.35,99735.56,139.73,138.63,138.63,0.0,vol 6,5.192,136.26241379310343
361652.0,-60.28,-8.12,1.04,1.16,-0.13,-0.99,-7.35,-0.56,-0.5,16.35,99735.56,139.73,138.74,138.74,0.0,vol 6,5.202,136.26241379310343
361661.0,-60.39,-8.13,1.04,1.16,-0.15,-0.98,-7.32,-0.53,-0.52,16.35,99735.56,139.73,138.84,138.84,0.0,vol 6,5.211,136.26241379310343
361671.0,-60.47,-8.13,1.03,1.15,-0.16,-0.98,-7.29,-0.5,-0.54,16.35,99730.7,140.14,138.97,138.97,0.0,vol 6,5.221,136.67241379310343
361682.0,-60.57,-8.13,1.02,1.15,-0.18,-0.98,-7.27,-0.47,-0.56,16.35,99730.7,140.14,139.09,139.09,0.0,vol 6,5.232,136.67241379310343
361692.0,-60.64,-8.13,1.02,1.15,-0.18,-0.98,-7.24,-0.44,-0.58,16.35,99730.7,140.14,139.2,139.2,0.0,vol 6,5.242,136.67241379310343
361701.0,-60.71,-8.13,1.01,1.15,-0.18,-0.99,-7.22,-0.41,-0.6,16.35,99726.02,140.54,139.33,139.33,0.0,vol 6,5.251,137.07241379310344
361710.0,-60.78,-8.12,1.01,1.15,-0.19,-1.0,-7.19,-0.38,-0.62,16.35,99726.02,140.54,139.45,139.45,0.0,vol 6,5.26,137.07241379310344
361720.0,-60.85,-8.11,1.0,1.15,-0.19,-1.01,-7.17,-0.35,-0.63,16.35,99726.02,140.54,139.56,139.56,0.0,vol 6,5.27,137.07241379310344
361730.0,-60.91,-8.1,0.99,1.15,-0.19,-1.02,-7.14,-0.31,-0.64,16.35,99726.02,140.54,139.66,139.66,0.0,vol 6,5.28,137.07241379310344
361740.0,-60.97,-8.08,0.99,1.16,-0.18,-1.05,-7.11,-0.27,-0.64,16.36,99722.06,140.87,139.78,139.78,0.0,vol 6,5.29,137.40241379310345
361750.0,-61.04,-8.06,0.98,1.15,-0.19,-1.06,-7.08,-0.24,-0.65,16.36,99722.06,140.87,139.89,139.89,0.0,vol 6,5.3,137.40241379310345
361760.0,-61.11,-8.04,0.97,1.15,-0.19,-1.08,-7.06,-0.2,-0.65,16.36,99722.06,140.87,139.99,139.99,0.0,vol 6,5.31,137.40241379310345
361770.0,-61.17,-8.02,0.97,1.14,-0.18,-1.1,-7.03,-0.15,-0.65,16.36,99722.06,140.87,140.08,140.08,0.0,vol 6,5.32,137.40241379310345
361780.0,-61.23,-7.99,0.96,1.14,-0.18,-1.12,-7.01,-0.11,-0.64,16.36,99717.88,141.23,140.19,140.19,0.0,vol 6,5.33,137.76241379310343
361790.0,-61.26,-7.99,0.96,1.14,-0.15,-1.13,-6.99,-0.06,-0.64,16.36,99717.88,141.23,140.29,140.29,0.0,vol 6,5.34,137.76241379310343
361800.0,-61.3,-7.98,0.95,1.14,-0.13,-1.14,-6.97,-0.02,-0.62,16.36,99717.88,141.23,140.39,140.39,0.0,vol 6,5.35,137.76241379310343
361810.0,-61.34,-7.97,0.94,1.14,-0.12,-1.15,-6.95,0.02,-0.61,16.36,99717.88,141.23,140.47,140.47,0.0,vol 6,5.36,137.76241379310343
361820.0,-61.38,-7.97,0.94,1.13,-0.1,-1.15,-6.93,0.07,-0.59,16.36,99713.85,141.57,140.58,140.58,0.0,vol 6,5.37,138.10241379310344
361830.0,-61.42,-7.96,0.93,1.13,-0.08,-1.16,-6.91,0.11,-0.56,16.36,99713.85,141.57,140.68,140.68,0.0,vol 6,5.38,138.10241379310344
361839.0,-61.44,-7.95,0.93,1.13,-0.05,-1.17,-6.89,0.15,-0.53,16.36,99713.85,141.57,140.77,140.77,0.0,vol 6,5.389,138.10241379310344
361849.0,-61.48,-7.94,0.92,1.12,-0.03,-1.16,-6.87,0.19,-0.5,16.36,99710.0,141.89,140.88,140.88,0.0,vol 6,5.399,138.42241379310343
361859.0,-61.52,-7.93,0.92,1.1,-0.01,-1.15,-6.86,0.22,-0.46,16.36,99710.0,141.89,140.98,140.98,0.0,vol 6,5.409,138.42241379310343
361869.0,-61.57,-7.94,0.91,1.1,0.0,-1.13,-6.84,0.25,-0.43,16.36,99710.0,141.89,141.07,141.07,0.0,vol 6,5.419,138.42241379310343
361879.0,-61.6,-7.95,0.91,1.09,0.02,-1.12,-6.83,0.28,-0.38,16.36,99710.0,141.89,141.15,141.15,0.0,vol 6,5.429,138.42241379310343
361889.0,-61.63,-7.96,0.91,1.1,0.04,-1.11,-6.82,0.3,-0.34,16.36,99706.16,142.21,141.26,141.26,0.0,vol 6,5.439,138.74241379310345
361899.0,-61.68,-7.95,0.9,1.1,0.06,-1.11,-6.8,0.32,-0.29,16.36,99706.16,142.21,141.35,141.35,0.0,vol 6,5.449,138.74241379310345
361909.0,-61.73,-7.96,0.9,1.1,0.07,-1.1,-6.79,0.34,-0.24,16.36,99706.16,142.21,141.44,141.44,0.0,vol 6,5.459,138.74241379310345
361919.0,-61.76,-7.96,0.9,1.09,0.09,-1.1,-6.78,0.35,-0.19,16.36,99706.16,142.21,141.52,141.52,0.0,vol 6,5.469,138.74241379310345
361929.0,-61.81,-7.95,0.9,1.08,0.1,-1.09,-6.77,0.35,-0.14,16.36,99702.47,142.53,141.62,141.62,0.0,vol 6,5.479,139.06241379310345
361939.0,-61.85,-7.92,0.9,1.05,0.11,-1.08,-6.76,0.35,-0.09,16.36,99702.47,142.53,141.71,141.71,0.0,vol 6,5.489,139.06241379310345
361949.0,-61.88,-7.89,0.9,1.04,0.13,-1.09,-6.75,0.36,-0.04,16.36,99702.47,142.53,141.79,141.79,0.0,vol 6,5.499,139.06241379310345
361959.0,-61.93,-7.9,0.9,1.04,0.14,-1.08,-6.74,0.35,0.02,16.36,99702.47,142.53,141.86,141.86,0.0,vol 6,5.509,139.06241379310345
361969.0,-62.0,-7.9,0.9,1.03,0.14,-1.06,-6.73,0.35,0.06,16.36,99699.34,142.79,141.96,141.96,0.0,vol 6,5.519,139.32241379310344
361979.0,-62.04,-7.9,0.9,1.02,0.15,-1.05,-6.72,0.34,0.12,16.36,99699.34,142.79,142.04,142.04,0.0,vol 6,5.529,139.32241379310344
361989.0,-62.09,-7.89,0.9,1.01,0.16,-1.04,-6.71,0.32,0.17,16.36,99699.34,142.79,142.11,142.11,0.0,vol 6,5.539,139.32241379310344
361999.0,-62.14,-7.89,0.9,1.0,0.17,-1.03,-6.7,0.3,0.23,16.36,99696.0,143.07,142.21,142.21,0.0,vol 6,5.549,139.60241379310344
362009.0,-62.21,-7.89,0.9,1.0,0.16,-1.03,-6.7,0.28,0.28,16.36,99696.0,143.07,142.3,142.3,0.0,vol 6,5.559,139.60241379310344
362019.0,-62.29,-7.89,0.91,0.99,0.15,-1.02,-6.69,0.26,0.32,16.36,99696.0,143.07,142.37,142.37,0.0,vol 6,5.569,139.60241379310344
362028.0,-62.36,-7.9,0.91,0.99,0.15,-1.01,-6.68,0.23,0.36,16.36,99696.0,143.07,142.44,142.44,0.0,vol 6,5.578,139.60241379310344
362039.0,-62.42,-7.9,0.92,0.98,0.15,-1.0,-6.67,0.19,0.41,16.36,99692.81,143.34,142.53,142.53,0.0,vol 6,5.589,139.87241379310345
362049.0,-62.49,-7.9,0.92,0.98,0.14,-0.99,-6.66,0.16,0.45,16.36,99692.81,143.34,142.61,142.61,0.0,vol 6,5.599,139.87241379310345
362059.0,-62.56,-7.91,0.93,0.98,0.14,-0.98,-6.64,0.12,0.49,16.36,99692.81,143.34,142.69,142.69,0.0,vol 6,5.609,139.87241379310345
362069.0,-62.64,-7.93,0.93,0.98,0.13,-0.97,-6.63,0.08,0.52,16.36,99692.81,143.34,142.75,142.75,0.0,vol 6,5.619,139.87241379310345
362079.0,-62.71,-7.94,0.94,1.0,0.13,-0.97,-6.62,0.04,0.55,16.36,99689.97,143.58,142.83,142.83,0.0,vol 6,5.629,140.11241379310346
362089.0,-62.77,-7.95,0.94,1.0,0.13,-0.97,-6.61,-0.01,0.57,16.36,99689.97,143.58,142.91,142.91,0.0,vol 6,5.639,140.11241379310346
362099.0,-62.84,-7.97,0.95,1.01,0.12,-0.96,-6.6,-0.05,0.6,16.36,99689.97,143.58,142.98,142.98,0.0,vol 6,5.649,140.11241379310346
362109.0,-62.9,-7.97,0.95,1.02,0.13,-0.97,-6.59,-0.09,0.61,16.36,99687.13,143.79,143.06,143.06,0.0,vol 6,5.659,140.32241379310344
362119.0,-62.97,-7.96,0.96,1.02,0.12,-0.98,-6.58,-0.14,0.63,16.36,99687.52,143.79,143.13,143.13,0.0,vol 6,5.669,140.32241379310344
362129.0,-63.04,-7.95,0.97,1.01,0.12,-0.98,-6.57,-0.19,0.64,16.36,99687.52,143.79,143.2,143.2,0.0,vol 6,5.679,140.32241379310344
362139.0,-63.12,-7.95,0.97,1.01,0.11,-0.98,-6.56,-0.23,0.65,16.36,99687.52,143.79,143.25,143.25,0.0,vol 6,5.689,140.32241379310344
362149.0,-63.21,-7.96,0.98,1.02,0.1,-0.99,-6.56,-0.27,0.65,16.36,99684.84,144.01,143.33,143.33,0.0,vol 6,5.699,140.54241379310344
362159.0,-63.29,-7.97,0.99,1.02,0.09,-0.99,-6.55,-0.32,0.66,16.36,99684.84,144.01,143.4,143.4,0.0,vol 6,5.709,140.54241379310344
362169.0,-63.36,-7.97,0.99,1.02,0.08,-1.0,-6.54,-0.36,0.66,16.36,99684.84,144.01,143.46,143.46,0.0,vol 6,5.719,140.54241379310344
362179.0,-63.44,-7.99,1.0,1.03,0.07,-0.99,-6.53,-0.4,0.65,16.36,99684.84,144.01,143.51,143.51,0.0,vol 6,5.729,140.54241379310344
362189.0,-63.54,-8.0,1.01,1.03,0.05,-0.99,-6.51,-0.44,0.64,16.36,99682.33,144.22,143.59,143.59,0.0,vol 6,5.739,140.75241379310344
362199.0,-63.61,-8.02,1.01,1.04,0.04,-0.99,-6.5,-0.48,0.63,16.36,99682.33,144.22,143.65,143.65,0.0,vol 6,5.749,140.75241379310344
362209.0,-63.66,-8.02,1.02,1.04,0.05,-0.99,-6.49,-0.52,0.62,16.36,99682.33,144.22,143.71,143.71,0.0,vol 6,5.759,140.75241379310344
362219.0,-63.72,-8.03,1.02,1.04,0.05,-0.98,-6.48,-0.55,0.6,16.36,99682.33,144.42,143.78,143.78,0.0,vol 6,5.769,140.95241379310343
362229.0,-63.76,-8.05,1.03,1.05,0.07,-0.97,-6.46,-0.59,0.58,16.36,99679.98,144.42,143.84,143.84,0.0,vol 6,5.779,140.95241379310343
362239.0,-63.79,-8.08,1.04,1.05,0.08,-0.96,-6.45,-0.62,0.56,16.36,99679.98,144.42,143.9,143.9,0.0,vol 6,5.789,140.95241379310343
362249.0,-63.83,-8.07,1.04,1.05,0.1,-0.97,-6.44,-0.65,0.54,16.36,99679.98,144.42,143.95,143.95,0.0,vol 6,5.799,140.95241379310343
362259.0,-63.87,-8.07,1.05,1.05,0.11,-0.98,-6.44,-0.68,0.52,16.36,99678.34,144.56,144.01,144.01,0.0,vol 6,5.809,141.09241379310345
362269.0,-63.91,-8.08,1.05,1.05,0.12,-0.97,-6.43,-0.71,0.5,16.36,99678.34,144.56,144.07,144.07,0.0,vol 6,5.819,141.09241379310345
362279.0,-63.94,-8.1,1.06,1.07,0.14,-0.97,-6.42,-0.74,0.48,16.36,99678.34,144.56,144.12,144.12,0.0,vol 6,5.829,141.09241379310345
362288.0,-63.98,-8.11,1.06,1.07,0.15,-0.96,-6.41,-0.76,0.46,16.36,99678.34,144.56,144.16,144.16,0.0,vol 6,5.838,141.09241379310345
362299.0,-64.06,-8.12,1.06,1.06,0.14,-0.96,-6.41,-0.79,0.44,16.36,99676.5,144.72,144.22,144.22,0.0,vol 6,5.849,141.25241379310344
362309.0,-64.15,-8.13,1.07,1.07,0.12,-0.96,-6.4,-0.81,0.41,16.36,99676.5,144.72,144.27,144.27,0.0,vol 6,5.859,141.25241379310344
362319.0,-64.23,-8.16,1.07,1.07,0.11,-0.95,-6.39,-0.83,0.39,16.36,99676.5,144.72,144.31,144.31,0.0,vol 6,5.869,141.25241379310344
362328.0,-64.29,-8.16,1.08,1.06,0.11,-0.95,-6.39,-0.85,0.36,16.36,99676.5,144.72,144.35,144.35,0.0,vol 6,5.878,141.25241379310344
362338.0,-64.37,-8.16,1.08,1.05,0.1,-0.95,-6.38,-0.87,0.34,16.36,99674.66,144.87,144.4,144.4,0.0,vol 6,5.888,141.40241379310345
362348.0,-64.46,-8.16,1.08,1.05,0.08,-0.95,-6.38,-0.89,0.31,16.36,99674.66,144.87,144.45,144.45,0.0,vol 6,5.898,141.40241379310345
362358.0,-64.55,-8.17,1.08,1.06,0.07,-0.97,-6.37,-0.9,0.28,16.36,99674.66,144.87,144.49,144.49,0.0,vol 6,5.908,141.40241379310345
362368.0,-64.65,-8.19,1.09,1.07,0.04,-0.97,-6.37,-0.91,0.25,16.36,99674.66,145.03,144.55,144.55,0.0,vol 6,5.918,141.56241379310345
362378.0,-64.73,-8.2,1.09,1.07,0.03,-0.97,-6.36,-0.92,0.21,16.36,99672.81,145.03,144.59,144.59,0.0,vol 6,5.928,141.56241379310345
362388.0,-64.81,-8.23,1.09,1.08,0.02,-0.96,-6.35,-0.93,0.17,16.36,99672.81,145.03,144.64,144.64,0.0,vol 6,5.938,141.56241379310345
362398.0,-64.89,-8.25,1.09,1.09,0.01,-0.96,-6.34,-0.94,0.14,16.36,99672.81,145.03,144.68,144.68,0.0,vol 6,5.948,141.56241379310345
362408.0,-64.96,-8.27,1.09,1.09,0.0,-0.95,-6.33,-0.94,0.1,16.37,99671.71,145.12,144.72,144.72,0.0,vol 6,5.958,141.65241379310345
362418.0,-65.08,-8.27,1.09,1.09,-0.03,-0.95,-6.32,-0.94,0.06,16.37,99671.71,145.12,144.76,144.76,0.0,vol 6,5.968,141.65241379310345
362428.0,-65.17,-8.29,1.09,1.09,-0.05,-0.95,-6.3,-0.94,0.03,16.37,99671.71,145.12,144.8,144.8,0.0,vol 6,5.978,141.65241379310345
362438.0,-65.26,-8.29,1.09,1.1,-0.07,-0.96,-6.3,-0.94,-0.01,16.37,99671.71,145.12,144.83,144.83,0.0,vol 6,5.988,141.65241379310345
362448.0,-65.35,-8.29,1.09,1.11,-0.1,-0.97,-6.29,-0.93,-0.06,16.37,99670.2,145.25,144.87,144.87,0.0,vol 6,5.998,141.78241379310344
362458.0,-65.41,-8.29,1.09,1.12,-0.1,-0.99,-6.28,-0.92,-0.1,16.37,99670.2,145.25,144.91,144.91,0.0,vol 6,6.008,141.78241379310344
362468.0,-65.46,-8.3,1.09,1.13,-0.09,-1.0,-6.28,-0.9,-0.14,16.37,99670.2,145.25,144.94,144.94,0.0,vol 6,6.018,141.78241379310344
362477.0,-65.54,-8.28,1.09,1.12,-0.11,-1.02,-6.27,-0.88,-0.18,16.37,99670.2,145.25,144.97,144.97,0.0,vol 6,6.027,141.78241379310344
362487.0,-65.64,-8.27,1.09,1.12,-0.13,-1.03,-6.27,-0.86,-0.21,16.37,99669.03,145.35,145.01,145.01,0.0,vol 6,6.037,141.88241379310344
362498.0,-65.76,-8.24,1.09,1.12,-0.18,-1.05,-6.26,-0.84,-0.25,16.37,99669.03,145.35,145.04,145.04,0.0,vol 6,6.048,141.88241379310344
362508.0,-65.86,-8.23,1.08,1.12,-0.21,-1.06,-6.26,-0.8,-0.29,16.37,99669.03,145.35,145.07,145.07,0.0,vol 6,6.058,141.88241379310344
362517.0,-65.96,-8.24,1.08,1.13,-0.23,-1.06,-6.25,-0.77,-0.33,16.37,99667.86,145.44,145.11,145.11,0.0,vol 6,6.067,141.97241379310344
362527.0,-66.02,-8.25,1.08,1.14,-0.23,-1.08,-6.25,-0.74,-0.37,16.37,99667.86,145.44,145.14,145.14,0.0,vol 6,6.077,141.97241379310344
362537.0,-66.08,-8.26,1.07,1.16,-0.24,-1.09,-6.24,-0.7,-0.41,16.37,99667.86,145.44,145.17,145.17,0.0,vol 6,6.087,141.97241379310344
362548.0,-66.11,-8.26,1.07,1.17,-0.22,-1.11,-6.23,-0.65,-0.45,16.37,99667.86,145.44,145.2,145.2,0.0,vol 6,6.098,141.97241379310344
362558.0,-66.15,-8.28,1.06,1.18,-0.21,-1.11,-6.23,-0.6,-0.49,16.37,99667.59,145.47,145.23,145.23,0.0,vol 6,6.108,142.00241379310344
362568.0,-66.2,-8.28,1.06,1.19,-0.2,-1.13,-6.22,-0.56,-0.52,16.37,99667.59,145.47,145.25,145.25,0.0,vol 6,6.118,142.00241379310344
362578.0,-66.25,-8.28,1.05,1.2,-0.19,-1.14,-6.22,-0.51,-0.54,16.37,99667.59,145.47,145.27,145.27,0.0,vol 6,6.128,142.00241379310344
362588.0,-66.31,-8.28,1.05,1.2,-0.2,-1.15,-6.21,-0.46,-0.56,16.37,99667.59,145.47,145.29,145.29,0.0,vol 6,6.138,142.00241379310344
362598.0,-66.38,-8.29,1.04,1.21,-0.21,-1.14,-6.2,-0.41,-0.58,16.37,99666.52,145.56,145.32,145.32,0.0,vol 6,6.148,142.09241379310345
362608.0,-66.46,-8.31,1.03,1.22,-0.22,-1.13,-6.19,-0.36,-0.59,16.37,99666.52,145.56,145.34,145.34,0.0,vol 6,6.158,142.09241379310345
362618.0,-66.52,-8.35,1.03,1.22,-0.22,-1.1,-6.18,-0.3,-0.6,16.37,99666.52,145.56,145.36,145.36,0.0,vol 6,6.168,142.09241379310345
362628.0,-66.58,-8.37,1.02,1.22,-0.21,-1.08,-6.17,-0.26,-0.61,16.37,99666.52,145.55,145.38,145.38,0.0,vol 6,6.178,142.08241379310346
362638.0,-66.61,-8.39,1.01,1.22,-0.19,-1.06,-6.16,-0.21,-0.62,16.37,99666.58,145.55,145.4,145.4,0.0,vol 6,6.188,142.08241379310346
362648.0,-66.65,-8.42,1.01,1.22,-0.18,-1.04,-6.16,-0.16,-0.62,16.37,99666.58,145.55,145.42,145.42,0.0,vol 6,6.198,142.08241379310346
362658.0,-66.7,-8.44,1.0,1.22,-0.17,-1.02,-6.15,-0.12,-0.63,16.37,99666.58,145.55,145.43,145.43,0.0,vol 6,6.208,142.08241379310346
362668.0,-66.7,-8.48,1.0,1.23,-0.13,-1.01,-6.14,-0.08,-0.62,16.37,99666.08,145.59,145.45,145.45,0.0,vol 6,6.218,142.12241379310345
362677.0,-66.73,-8.5,0.99,1.23,-0.11,-1.0,-6.14,-0.04,-0.61,16.37,99666.08,145.59,145.46,145.46,0.0,vol 6,6.227,142.12241379310345
362688.0,-66.77,-8.5,0.98,1.22,-0.1,-0.99,-6.13,-0.01,-0.6,16.37,99666.08,145.59,145.47,145.47,0.0,vol 6,6.238,142.12241379310345
362698.0,-66.84,-8.49,0.98,1.2,-0.1,-0.98,-6.13,0.02,-0.58,16.37,99666.08,145.59,145.49,145.49,0.0,vol 6,6.248,142.12241379310345
362708.0,-66.89,-8.49,0.97,1.18,-0.09,-0.96,-6.13,0.06,-0.57,16.37,99666.08,145.59,145.5,145.5,0.0,vol 6,6.258,142.12241379310345
362718.0,-66.94,-8.49,0.97,1.15,-0.08,-0.94,-6.13,0.08,-0.54,16.37,99666.08,145.59,145.51,145.51,0.0,vol 6,6.268,142.12241379310345
362728.0,-67.02,-8.47,0.96,1.13,-0.1,-0.93,-6.13,0.11,-0.52,16.37,99666.08,145.59,145.52,145.52,0.0,vol 6,6.278,142.12241379310345
362738.0,-67.08,-8.46,0.96,1.1,-0.1,-0.92,-6.13,0.13,-0.5,16.37,99666.08,145.59,145.52,145.52,0.0,vol 6,6.288,142.12241379310345
362748.0,-67.11,-8.44,0.95,1.08,-0.08,-0.91,-6.13,0.15,-0.48,16.37,99665.91,145.61,145.53,145.53,0.0,vol 6,6.298,142.14241379310346
362758.0,-67.14,-8.43,0.95,1.06,-0.06,-0.91,-6.14,0.17,-0.45,16.37,99665.91,145.61,145.54,145.54,0.0,vol 6,6.308,142.14241379310346
362767.0,-67.17,-8.42,0.94,1.04,-0.04,-0.9,-6.14,0.18,-0.43,16.37,99665.91,145.61,145.55,145.55,0.0,vol 6,6.317,142.14241379310346
362777.0,-67.22,-8.39,0.94,1.02,-0.03,-0.9,-6.15,0.19,-0.4,16.37,99666.08,145.59,145.55,145.55,0.0,vol 6,6.327,142.12241379310345
362788.0,-67.29,-8.37,0.94,0.99,-0.04,-0.89,-6.15,0.2,-0.36,16.37,99666.08,145.59,145.56,145.56,0.0,vol 6,6.338,142.12241379310345
362798.0,-67.38,-8.34,0.93,0.95,-0.06,-0.88,-6.16,0.21,-0.33,16.37,99666.08,145.59,145.56,145.56,0.0,vol 6,6.348,142.12241379310345
362808.0,-67.5,-8.27,0.93,0.9,-0.09,-0.88,-6.16,0.21,-0.3,16.37,99666.08,145.59,145.56,145.56,0.0,vol 6,6.358,142.12241379310345
362818.0,-67.62,-8.18,0.93,0.84,-0.11,-0.88,-6.16,0.21,-0.27,16.37,99666.41,145.57,145.56,145.56,0.0,vol 6,6.368,142.10241379310344
362828.0,-67.73,-8.1,0.92,0.78,-0.14,-0.87,-6.16,0.21,-0.24,16.37,99666.41,145.57,145.56,145.56,0.0,vol 6,6.378,142.10241379310344
362838.0,-67.87,-7.97,0.92,0.7,-0.17,-0.87,-6.16,0.21,-0.21,16.37,99666.41,145.57,145.56,145.56,0.0,vol 6,6.388,142.10241379310344
362848.0,-67.97,-7.78,0.92,0.6,-0.19,-0.89,-6.15,0.2,-0.18,16.37,99666.41,145.57,145.56,145.56,0.0,vol 6,6.398,142.10241379310344
362857.0,-68.11,-7.49,0.92,0.46,-0.22,-0.9,-6.15,0.19,-0.15,16.37,99666.91,145.52,145.56,145.56,0.0,vol 6,6.407,142.05241379310343
362867.0,-68.22,-7.08,0.92,0.27,-0.23,-0.92,-6.14,0.18,-0.12,16.37,99666.91,145.52,145.56,145.56,0.0,vol 6,6.417,142.05241379310343
362877.0,-68.28,-6.42,0.92,-0.0,-0.23,-0.95,-6.14,0.16,-0.09,16.37,99666.91,145.52,145.55,145.56,0.0,vol 6,6.427,142.05241379310343
362887.0,-68.31,-5.76,0.92,-0.31,-0.23,-1.0,-6.13,0.15,-0.05,16.37,99666.91,145.48,145.55,145.56,0.0,vol 6,6.437,142.01241379310343
362897.0,-68.31,-5.31,0.92,-0.57,-0.23,-1.05,-6.13,0.13,-0.02,16.37,99667.42,145.48,145.54,145.56,0.0,vol 6,6.447,142.01241379310343
362907.0,-68.3,-4.95,0.92,-0.84,-0.23,-1.1,-6.13,0.12,0.02,16.37,99667.42,145.48,145.53,145.56,0.0,vol 6,6.457,142.01241379310343
362917.0,-68.28,-4.62,0.92,-1.16,-0.21,-1.13,-6.13,0.11,0.05,16.37,99667.42,145.48,145.53,145.56,0.0,vol 6,6.467,142.01241379310343
362927.0,-68.28,-4.29,0.92,-1.6,-0.21,-1.16,-6.14,0.1,0.1,16.37,99671.6,145.13,145.49,145.56,0.0,vol 6,6.477,141.66241379310344
362937.0,-68.21,-3.25,0.92,-12.63,-0.58,-2.29,-6.09,0.2,0.13,16.37,99671.6,145.13,145.45,145.56,0.0,vol 6,6.487,141.66241379310344
362947.0,-68.42,-3.13,0.92,-19.9,-2.27,-1.39,-5.86,0.28,0.13,16.37,99671.6,145.13,145.42,145.56,0.0,vol 6,6.497,141.66241379310344
362957.0,-68.46,-3.1,0.92,-14.93,-1.59,-0.93,-5.65,0.2,0.1,16.37,99671.6,145.13,145.39,145.56,0.0,vol 6,6.507,141.66241379310344
362967.0,-68.51,-3.13,0.92,-10.7,-1.14,-0.91,-5.51,0.12,0.08,16.37,99674.67,144.87,145.34,145.56,0.0,vol 6,6.517,141.40241379310345
362977.0,-68.55,-3.19,0.92,-7.6,-0.81,-0.95,-5.42,0.04,0.07,16.37,99674.67,144.87,145.29,145.56,0.0,vol 6,6.527,141.40241379310345
362987.0,-68.6,-3.3,0.92,-5.31,-0.55,-1.0,-5.36,-0.05,0.07,16.37,99674.67,144.87,145.25,145.56,0.0,vol 6,6.537,141.40241379310345
362996.0,-68.61,-3.51,0.92,-3.56,-0.31,-1.06,-5.33,-0.13,0.07,16.37,99674.67,144.87,145.21,145.56,0.0,vol 6,6.546,141.40241379310345
363006.0,-68.61,-3.85,0.93,-2.41,-0.17,-1.15,-5.3,-0.21,0.08,16.37,99676.69,144.7,145.16,145.56,0.0,vol 6,6.556,141.23241379310343
363017.0,-68.6,-4.52,0.93,-1.36,-0.07,-1.24,-5.28,-0.3,0.09,16.37,99676.69,144.7,145.11,145.56,0.0,vol 6,6.567,141.23241379310343
363027.0,-68.58,-5.37,0.93,-0.63,-0.01,-1.27,-5.28,-0.38,0.09,16.37,99676.69,144.7,145.07,145.56,0.0,vol 6,6.577,141.23241379310343
363036.0,-68.56,-6.33,0.93,-0.06,0.03,-1.28,-5.3,-0.47,0.07,16.37,99678.86,144.52,145.02,145.56,0.0,vol 6,6.586,141.05241379310343
363047.0,-68.56,-7.06,0.93,0.37,0.07,-1.32,-5.32,-0.56,0.05,16.37,99678.86,144.52,144.97,145.56,0.0,vol 6,6.597,141.05241379310343
363057.0,-68.58,-7.57,0.93,0.71,0.1,-1.32,-5.34,-0.66,0.01,16.37,99678.86,144.52,144.92,145.56,0.0,vol 6,6.607,141.05241379310343
363067.0,-68.62,-7.95,0.93,1.03,0.12,-1.34,-5.37,-0.77,-0.05,16.37,99678.86,144.52,144.88,145.56,0.0,vol 6,6.617,141.05241379310343
363077.0,-68.62,-8.09,0.93,1.19,0.17,-1.37,-5.39,-0.87,-0.11,16.37,99681.94,144.26,144.82,145.56,0.0,vol 6,6.627,140.79241379310344
363087.0,-68.62,-8.17,0.93,1.31,0.22,-1.41,-5.41,-0.98,-0.19,16.37,99681.94,144.26,144.76,145.56,0.0,vol 6,6.637,140.79241379310344
363097.0,-68.62,-8.23,0.92,1.43,0.29,-1.47,-5.42,-1.1,-0.28,16.37,99681.94,144.26,144.71,145.56,0.0,vol 6,6.647,140.79241379310344
363107.0,-68.62,-8.25,0.92,1.51,0.35,-1.53,-5.41,-1.22,-0.39,16.37,99681.94,144.26,144.67,145.56,0.0,vol 6,6.657,140.79241379310344
363117.0,-68.62,-8.3,0.91,1.59,0.41,-1.56,-5.4,-1.34,-0.51,16.37,99685.62,143.95,144.59,145.56,0.0,vol 6,6.667,140.48241379310343
363127.0,-68.58,-8.35,0.91,1.71,0.53,-1.58,-5.38,-1.47,-0.67,16.37,99685.62,143.95,144.53,145.56,0.0,vol 6,6.677,140.48241379310343
363137.0,-68.58,-8.34,0.9,1.7,0.58,-1.59,-5.35,-1.58,-0.83,16.37,99685.62,143.95,144.47,145.56,0.0,vol 6,6.687,140.48241379310343
363147.0,-68.56,-8.34,0.89,1.72,0.67,-1.61,-5.33,-1.71,-1.02,16.37,99685.62,143.54,144.38,145.56,0.0,vol 6,6.697,140.07241379310344
363157.0,-68.49,-8.38,0.88,1.81,0.83,-1.6,-5.31,-1.84,-1.23,16.37,99690.48,143.54,144.29,145.56,0.0,vol 6,6.707,140.07241379310344
363167.0,-68.38,-8.47,0.86,2.07,1.1,-1.58,-5.29,-1.98,-1.46,16.37,99690.48,143.54,144.22,145.56,0.0,vol 6,6.717,140.07241379310344
363177.0,-68.32,-8.53,0.85,2.3,1.34,-1.58,-5.25,-2.13,-1.7,16.37,99690.48,143.54,144.15,145.56,0.0,vol 6,6.727,140.07241379310344
363187.0,-68.25,-8.62,0.83,3.25,2.03,-1.86,-5.17,-2.27,-1.9,16.38,99697.73,142.92,144.03,145.56,0.0,vol 6,6.737,139.45241379310343
363197.0,-68.24,-8.49,0.81,2.99,2.07,-2.01,-5.01,-2.39,-2.08,16.38,99697.73,142.92,143.92,145.56,0.0,vol 6,6.747,139.45241379310343
363206.0,-68.35,-8.39,0.78,3.72,2.59,-3.05,-4.81,-2.47,-2.3,16.38,99697.73,142.92,143.82,145.56,0.0,vol 6,6.756,139.45241379310343
363217.0,-68.29,-8.36,0.76,7.27,5.59,-6.03,-3.92,-2.3,-2.23,16.38,99697.73,142.92,143.73,145.56,0.0,vol 6,6.767,139.45241379310343
363227.0,-68.27,-8.4,0.75,11.99,9.33,-9.34,-1.67,-1.76,-1.44,16.38,99706.5,142.19,143.57,145.56,0.0,vol 6,6.777,138.72241379310344
363237.0,-68.31,-8.53,0.75,16.33,11.64,-11.36,1.68,-0.94,-0.01,16.38,99706.5,142.19,143.44,145.56,0.0,vol 6,6.787,138.72241379310344
363247.0,-68.47,-8.59,0.76,19.4,11.17,-14.5,5.75,0.29,1.63,16.38,99706.5,142.19,143.31,145.56,0.0,vol 6,6.797,138.72241379310344
363257.0,-68.53,-8.64,0.79,20.84,9.94,-15.51,10.14,1.94,3.08,16.38,99706.5,142.19,143.2,145.56,0.0,vol 6,6.807,138.72241379310344
363266.0,-68.51,-8.75,0.83,20.63,8.13,-13.86,14.05,3.66,4.04,16.38,99710.52,141.85,143.06,145.56,0.0,vol 6,6.816,138.38241379310344
363276.0,-68.5,-8.83,0.88,18.63,5.55,-11.59,16.97,5.18,4.33,16.38,99710.52,141.85,142.94,145.56,0.0,vol 6,6.826,138.38241379310344
363286.0,-68.44,-8.82,0.92,15.37,3.66,-9.42,17.43,6.38,3.98,16.38,99710.52,141.85,142.83,145.56,0.0,vol 6,6.836,138.38241379310344
363296.0,-68.32,-8.65,0.95,11.61,2.6,-7.96,17.43,7.27,3.18,16.38,99711.86,141.73,142.72,145.56,0.0,vol 6,6.846,138.26241379310343
363306.0,-68.16,-8.36,0.97,8.23,1.94,-6.97,17.43,7.9,2.1,16.38,99711.86,141.73,142.62,145.56,0.0,vol 6,6.856,138.26241379310343
363316.0,-67.98,-7.96,0.98,5.53,1.53,-6.23,17.43,8.28,0.82,16.38,99711.86,141.73,142.53,145.56,0.0,vol 6,6.866,138.26241379310343
363326.0,-67.76,-7.5,0.97,3.5,1.39,-5.58,17.43,8.39,-0.59,16.38,99711.86,141.73,142.45,145.56,0.0,vol 6,6.876,138.26241379310343
363336.0,-67.34,-7.14,0.95,2.27,1.73,-4.77,17.43,8.21,-2.04,16.38,99712.76,141.66,142.37,145.56,0.0,vol 6,6.886,138.19241379310344
363346.0,-66.44,-6.99,0.92,1.96,3.08,-3.67,17.43,7.69,-3.37,16.38,99712.76,141.66,142.3,145.56,0.0,vol 6,6.896,138.19241379310344
363356.0,-65.36,-6.8,0.87,2.15,5.62,-2.53,17.43,6.81,-4.36,16.38,99712.76,141.66,142.24,145.56,0.0,vol 6,6.906,138.19241379310344
363366.0,-64.8,-6.64,0.83,2.83,9.29,-2.15,17.43,5.67,-4.77,16.38,99712.76,141.66,142.18,145.56,0.0,vol 6,6.916,138.19241379310344
363376.0,-64.72,-6.59,0.78,3.72,12.04,-3.54,17.43,4.51,-4.51,16.38,99717.11,141.29,142.09,145.56,0.0,vol 6,6.926,137.82241379310344
363386.0,-64.83,-6.59,0.74,4.27,12.44,-5.75,17.43,3.56,-3.89,16.38,99717.11,141.29,142.01,145.56,0.0,vol 6,6.936,137.82241379310344
363396.0,-65.01,-6.58,0.71,4.41,11.31,-7.97,17.43,2.85,-3.23,16.38,99717.11,141.29,141.94,145.56,0.0,vol 6,6.946,137.82241379310344
363406.0,-65.26,-6.53,0.69,4.18,9.55,-10.01,17.43,2.32,-2.71,16.38,99717.11,140.81,141.83,145.56,0.0,vol 6,6.956,137.34241379310345
363416.0,-65.54,-6.47,0.66,4.19,7.65,-12.47,17.43,1.92,-2.33,16.38,99722.8,140.81,141.72,145.56,0.0,vol 6,6.966,137.34241379310345
363426.0,-65.91,-6.48,0.64,5.02,4.95,-16.12,17.43,1.72,-2.11,16.38,99722.8,140.81,141.63,145.56,0.0,vol 6,6.976,137.34241379310345
363436.0,-66.26,-6.51,0.62,6.07,1.17,-19.03,17.43,1.74,-2.19,16.38,99722.8,140.81,141.55,145.56,0.0,vol 6,6.986,137.34241379310345
363446.0,-66.46,-6.53,0.59,6.59,-2.13,-19.38,17.43,1.65,-2.62,16.38,99727.52,140.41,141.44,145.56,0.0,vol 6,6.996,136.94241379310344
363456.0,-66.55,-6.55,0.56,6.37,-3.95,-17.77,17.43,1.14,-3.16,16.38,99727.52,140.41,141.33,145.56,0.0,vol 6,7.006,136.94241379310344
363466.0,-66.52,-6.51,0.53,5.43,-4.57,-15.72,17.43,0.22,-3.49,16.38,99727.52,140.41,141.24,145.56,0.0,vol 6,7.016,136.94241379310344
363475.0,-66.45,-6.45,0.49,4.37,-4.68,-13.85,17.43,-0.93,-3.41,16.38,99727.52,140.41,141.16,145.56,0.0,vol 6,7.025,136.94241379310344
363484.0,-66.37,-6.43,0.47,3.73,-4.6,-12.34,17.43,-1.97,-2.94,16.38,99730.37,140.17,141.06,145.56,0.0,vol 6,7.034,136.70241379310343
363494.0,-66.26,-6.47,0.45,3.43,-4.4,-11.0,17.43,-2.86,-2.12,16.38,99730.37,140.17,140.97,145.56,0.0,vol 6,7.044,136.70241379310343
363504.0,-66.12,-6.56,0.44,3.35,-4.11,-9.8,17.43,-3.55,-0.88,16.38,99730.37,140.17,140.89,145.56,0.0,vol 6,7.054,136.70241379310343
363514.0,-65.96,-6.7,0.44,3.51,-3.8,-8.85,17.43,-3.79,0.57,16.38,99730.37,140.17,140.82,145.56,0.0,vol 6,7.064,136.70241379310343
363524.0,-65.79,-6.91,0.46,4.02,-3.56,-8.02,17.43,-3.52,2.05,16.38,99730.88,140.13,140.75,145.56,0.0,vol 6,7.074,136.66241379310344
363534.0,-65.62,-7.29,0.5,5.23,-3.51,-7.1,17.43,-2.67,3.5,16.38,99730.88,140.13,140.69,145.56,0.0,vol 6,7.084,136.66241379310344
363544.0,-65.46,-7.77,0.54,6.97,-3.69,-5.93,17.43,-1.53,4.45,16.38,99730.88,140.13,140.63,145.56,0.0,vol 6,7.094,136.66241379310344
363554.0,-65.22,-8.32,0.59,9.17,-3.7,-4.21,17.43,-0.39,4.92,16.38,99730.88,140.21,140.59,145.56,0.0,vol 6,7.104,136.74241379310345
363565.0,-64.8,-9.0,0.65,12.32,-3.1,0.11,17.43,0.77,5.04,16.38,99729.87,140.21,140.55,145.56,0.0,vol 6,7.115,136.74241379310345
363575.0,-64.4,-8.62,0.7,14.85,-2.32,5.99,17.43,1.16,4.87,16.38,99729.87,140.21,140.52,145.56,0.0,vol 6,7.125,136.74241379310345
363585.0,-64.1,-8.16,0.74,16.75,-1.82,11.44,17.43,0.69,4.56,16.38,99729.87,140.21,140.49,145.56,0.0,vol 6,7.135,136.74241379310345
363595.0,-63.86,-7.98,0.78,17.72,-1.28,14.48,17.43,-0.43,4.25,16.39,99732.09,140.03,140.44,145.56,0.0,vol 6,7.145,136.56241379310345
363605.0,-63.68,-7.9,0.82,16.95,-0.87,15.08,15.59,-1.91,3.97,16.39,99732.09,140.03,140.4,145.56,0.0,vol 6,7.155,136.56241379310345
363615.0,-63.58,-7.89,0.86,14.22,-0.78,13.15,11.28,-3.41,3.67,16.39,99732.09,140.03,140.36,145.56,0.0,vol 6,7.165,136.56241379310345
363625.0,-63.5,-7.92,0.89,10.51,-0.57,9.88,7.78,-4.61,3.33,16.39,99732.09,140.03,140.33,145.56,0.0,vol 6,7.175,136.56241379310345
363635.0,-63.44,-7.97,0.92,7.23,-0.34,6.81,4.93,-5.51,2.95,16.39,99736.29,139.67,140.26,145.56,0.0,vol 6,7.185,136.20241379310343
363645.0,-63.41,-8.06,0.95,5.21,-0.23,4.75,3.04,-6.05,2.6,16.39,99736.29,139.67,140.21,145.56,0.0,vol 6,7.195,136.20241379310343
363655.0,-63.4,-8.3,0.97,4.35,-0.2,3.39,1.75,-6.39,2.31,16.39,99736.29,139.67,140.15,145.56,0.0,vol 6,7.205,136.20241379310343
363665.0,-63.47,-8.92,0.99,4.91,-0.38,2.16,0.63,-6.68,1.99,16.39,99736.29,139.67,140.1,145.56,0.0,vol 6,7.215,136.20241379310343
363675.0,-63.78,-9.47,1.01,6.11,-1.28,0.16,-0.2,-6.86,1.65,16.39,99740.81,139.29,140.02,145.56,0.0,vol 6,7.225,135.82241379310344
363685.0,-64.26,-8.62,1.02,8.04,-3.91,-3.96,-0.56,-6.72,1.15,16.39,99740.81,139.29,139.95,145.56,0.0,vol 6,7.235,135.82241379310344
363694.0,-64.33,-8.33,1.02,9.41,-5.54,-6.96,-0.34,-6.11,0.42,16.39,99740.81,139.29,139.88,145.56,0.0,vol 6,7.244,135.82241379310344
363704.0,-64.21,-8.38,1.02,9.18,-4.84,-7.21,0.24,-5.34,-0.28,16.39,99745.5,138.9,139.79,145.56,0.0,vol 6,7.254,135.43241379310345
363714.0,-64.11,-8.46,1.01,7.68,-3.57,-6.1,0.86,-4.68,-0.82,16.39,99745.5,138.9,139.7,145.56,0.0,vol 6,7.264,135.43241379310345
363724.0,-64.0,-8.52,1.0,6.07,-2.49,-4.92,1.37,-4.21,-1.23,16.39,99745.5,138.9,139.62,145.56,0.0,vol 6,7.274,135.43241379310345
363734.0,-63.86,-8.56,0.98,4.84,-1.64,-4.05,1.76,-3.91,-1.53,16.39,99745.5,138.9,139.54,145.56,0.0,vol 6,7.284,135.43241379310345
363744.0,-63.66,-8.6,0.97,4.0,-0.94,-3.46,2.07,-3.73,-1.75,16.39,99750.34,138.49,139.44,145.56,0.0,vol 6,7.294,135.02241379310345
363754.0,-63.43,-8.61,0.95,3.45,-0.39,-3.15,2.35,-3.66,-1.91,16.39,99750.34,138.49,139.34,145.56,0.0,vol 6,7.304,135.02241379310345
363764.0,-63.21,-8.54,0.93,2.99,0.0,-3.02,2.61,-3.65,-2.01,16.39,99750.34,138.49,139.26,145.56,0.0,vol 6,7.314,135.02241379310345
363774.0,-63.01,-8.42,0.91,2.68,0.3,-3.07,2.86,-3.69,-2.07,16.39,99750.34,138.49,139.18,145.56,0.0,vol 6,7.324,135.02241379310345
363784.0,-62.88,-8.33,0.89,2.71,0.52,-3.48,3.14,-3.75,-2.1,16.39,99755.55,138.05,139.07,145.56,0.0,vol 6,7.334,134.58241379310346
363794.0,-62.93,-8.28,0.86,3.41,0.46,-4.74,3.57,-3.77,-2.08,16.39,99755.55,138.05,138.97,145.56,0.0,vol 6,7.344,134.58241379310346
363804.0,-63.16,-8.23,0.84,4.6,-0.29,-6.93,4.26,-3.63,-2.07,16.39,99755.55,138.05,138.87,145.56,0.0,vol 6,7.354,134.58241379310346
363814.0,-63.29,-8.2,0.83,5.34,-1.13,-8.48,5.21,-3.3,-2.13,16.39,99755.55,137.61,138.75,145.56,0.0,vol 6,7.364,134.14241379310346
363824.0,-63.2,-8.16,0.8,4.9,-0.97,-8.32,6.17,-2.98,-2.22,16.39,99761.13,137.58,138.63,145.56,0.0,vol 6,7.374,134.11241379310346
363834.0,-63.04,-8.08,0.78,4.09,-0.57,-7.8,7.0,-2.81,-2.27,16.39,99761.13,137.58,138.53,145.56,0.0,vol 6,7.384,134.11241379310346
363844.0,-62.89,-8.02,0.76,3.65,-0.26,-7.72,7.74,-2.75,-2.26,16.39,99761.13,137.58,138.43,145.56,0.0,vol 6,7.394,134.11241379310346
363854.0,-62.77,-7.97,0.73,3.44,-0.1,-7.93,8.48,-2.76,-2.16,16.39,99766.48,137.13,138.3,145.56,0.0,vol 6,7.404,133.66241379310344
363864.0,-62.71,-7.89,0.72,3.06,-0.16,-7.99,9.2,-2.82,-2.01,16.39,99766.48,137.13,138.18,145.56,0.0,vol 6,7.414,133.66241379310344
363874.0,-62.71,-7.89,0.7,3.08,-0.55,-8.39,9.87,-2.92,-1.81,16.39,99766.48,137.13,138.08,145.56,0.0,vol 6,7.424,133.66241379310344
363883.0,-62.82,-7.96,0.68,3.59,-1.55,-9.17,10.54,-3.0,-1.6,16.39,99766.48,137.13,137.98,145.56,0.0,vol 6,7.433,133.66241379310344
363893.0,-62.97,-8.07,0.67,4.47,-2.98,-9.95,11.11,-3.03,-1.47,16.39,99771.67,136.69,137.85,145.56,0.0,vol 6,7.443,133.22241379310344
363903.0,-63.05,-8.22,0.65,5.72,-4.44,-10.69,11.72,-3.02,-1.4,16.39,99771.67,136.69,137.74,145.56,0.0,vol 6,7.453,133.22241379310344
363913.0,-63.08,-8.32,0.64,6.89,-5.9,-11.44,12.31,-2.97,-1.4,16.39,99771.67,136.69,137.63,145.56,0.0,vol 6,7.463,133.22241379310344
363923.0,-63.09,-8.4,0.62,7.94,-7.42,-12.03,12.87,-2.89,-1.48,16.39,99771.67,136.69,137.54,145.56,0.0,vol 6,7.473,133.22241379310344
363933.0,-63.11,-8.48,0.61,8.76,-8.8,-11.85,13.32,-2.82,-1.65,16.39,99778.03,136.15,137.4,145.56,0.0,vol 6,7.483,132.68241379310345
363944.0,-63.13,-8.59,0.59,9.35,-9.84,-10.8,13.5,-2.88,-1.93,16.39,99778.03,136.15,137.28,145.56,0.0,vol 6,7.494,132.68241379310345
363953.0,-63.1,-8.65,0.57,9.43,-10.24,-9.84,13.44,-3.08,-2.17,16.39,99778.03,136.15,137.16,145.56,0.0,vol 6,7.503,132.68241379310345
363962.0,-63.07,-8.67,0.55,8.96,-10.29,-8.93,13.28,-3.34,-2.33,16.39,99778.03,135.74,137.02,145.56,0.0,vol 6,7.512,132.27241379310345
363972.0,-63.03,-8.64,0.52,7.84,-9.87,-8.01,13.08,-3.68,-2.4,16.39,99783.29,135.71,136.89,145.56,0.0,vol 6,7.522,132.24241379310345
363982.0,-63.0,-8.58,0.5,6.46,-9.17,-7.14,12.95,-4.01,-2.32,16.39,99783.29,135.71,136.77,145.56,0.0,vol 6,7.532,132.24241379310345
363992.0,-62.98,-8.48,0.48,4.91,-8.25,-6.17,12.86,-4.39,-2.05,16.39,99783.29,135.71,136.67,145.56,0.0,vol 6,7.542,132.24241379310345
364002.0,-62.99,-8.36,0.46,3.61,-7.48,-5.27,12.85,-4.74,-1.58,16.39,99786.14,135.47,136.55,145.56,0.0,vol 6,7.552,132.00241379310344
364012.0,-63.02,-8.26,0.45,2.63,-6.96,-4.43,12.92,-5.04,-0.94,16.39,99786.14,135.47,136.44,145.56,0.0,vol 6,7.562,132.00241379310344
364022.0,-63.09,-8.17,0.45,1.93,-6.65,-3.63,13.05,-5.26,-0.16,16.39,99786.14,135.47,136.34,145.56,0.0,vol 6,7.572,132.00241379310344
364032.0,-63.2,-8.14,0.46,1.56,-6.58,-2.78,13.22,-5.37,0.72,16.39,99786.14,135.47,136.26,145.56,0.0,vol 6,7.582,132.00241379310344
364042.0,-63.36,-8.18,0.48,1.52,-6.97,-1.78,13.37,-5.39,1.73,16.39,99787.64,135.34,136.16,145.56,0.0,vol 6,7.592,131.87241379310345
364052.0,-63.43,-8.26,0.5,1.81,-8.0,-0.69,13.35,-5.3,2.58,16.39,99787.64,135.34,136.08,145.56,0.0,vol 6,7.602,131.87241379310345
364062.0,-63.3,-8.34,0.53,2.21,-9.32,0.45,13.08,-5.18,3.18,16.39,99787.64,135.34,136.01,145.56,0.0,vol 6,7.612,131.87241379310345
364073.0,-63.07,-8.4,0.57,2.73,-11.12,1.75,12.33,-5.02,3.6,16.39,99787.64,135.34,135.94,145.56,0.0,vol 6,7.623,131.87241379310345
364083.0,-62.88,-8.43,0.61,2.92,-12.07,2.7,11.27,-4.89,3.69,16.39,99788.98,135.23,135.87,145.56,0.0,vol 6,7.633,131.76241379310343
364093.0,-62.72,-8.46,0.65,2.72,-11.69,3.22,10.08,-4.75,3.62,16.39,99788.98,135.23,135.81,145.56,0.0,vol 6,7.643,131.76241379310343
364103.0,-62.6,-8.44,0.68,2.24,-10.62,3.37,9.0,-4.6,3.58,16.39,99788.98,135.23,135.75,145.56,0.0,vol 6,7.653,131.76241379310343
364113.0,-62.5,-8.42,0.71,1.71,-9.53,3.34,8.11,-4.43,3.65,16.39,99789.98,135.15,135.69,145.56,0.0,vol 6,7.663,131.68241379310345
364123.0,-62.41,-8.39,0.75,1.33,-9.02,3.38,7.36,-4.27,3.79,16.39,99789.98,135.15,135.63,145.56,0.0,vol 6,7.673,131.68241379310345
364132.0,-62.38,-8.35,0.79,0.96,-8.78,3.26,6.66,-4.12,3.96,16.39,99789.98,135.15,135.59,145.56,0.0,vol 6,7.682,131.68241379310345
364143.0,-62.32,-8.35,0.84,0.88,-9.62,3.6,5.89,-4.03,4.08,16.39,99789.98,135.15,135.54,145.56,0.0,vol 6,7.693,131.68241379310345
364153.0,-62.38,-8.41,0.88,1.22,-12.36,3.97,4.57,-4.07,3.89,16.39,99792.0,134.98,135.49,145.56,0.0,vol 6,7.703,131.51241379310343
364163.0,-62.44,-8.44,0.91,1.21,-13.12,3.58,3.2,-4.17,3.44,16.39,99792.0,134.98,135.43,145.56,0.0,vol 6,7.713,131.51241379310343
364173.0,-62.55,-8.49,0.94,1.31,-13.61,2.9,1.7,-4.24,2.78,16.39,99792.0,134.98,135.39,145.56,0.0,vol 6,7.723,131.51241379310343
364183.0,-62.55,-8.54,0.96,1.37,-13.33,2.78,0.29,-4.26,2.06,16.39,99792.0,134.98,135.35,145.56,0.0,vol 6,7.733,131.51241379310343
364192.0,-62.5,-8.6,0.97,1.45,-12.88,2.97,-1.06,-4.27,1.32,16.39,99794.67,134.75,135.29,145.56,0.0,vol 6,7.742,131.28241379310344
364202.0,-62.5,-8.65,0.98,1.43,-12.16,2.92,-2.25,-4.24,0.61,16.39,99794.67,134.75,135.23,145.56,0.0,vol 6,7.752,131.28241379310344
364212.0,-62.55,-8.7,0.98,1.35,-11.19,2.56,-3.17,-4.15,-0.01,16.39,99794.67,134.75,135.19,145.56,0.0,vol 6,7.762,131.28241379310344
364222.0,-62.67,-8.74,0.97,1.26,-10.34,1.89,-3.81,-4.01,-0.49,16.39,99794.67,134.62,135.13,145.56,0.0,vol 6,7.772,131.15241379310345
364232.0,-62.84,-8.81,0.96,1.31,-10.02,0.96,-4.21,-3.81,-0.87,16.39,99796.18,134.62,135.08,145.56,0.0,vol 6,7.782,131.15241379310345
364242.0,-62.93,-8.86,0.95,1.37,-9.8,-0.06,-4.41,-3.57,-1.22,16.39,99796.18,134.62,135.03,145.56,0.0,vol 6,7.792,131.15241379310345
364253.0,-62.97,-8.85,0.94,1.07,-8.84,-0.62,-4.43,-3.34,-1.43,16.39,99796.18,134.62,134.99,145.56,0.0,vol 6,7.803,131.15241379310345
364262.0,-62.76,-8.94,0.92,1.34,-8.99,-1.87,-4.28,-3.09,-1.56,16.39,99798.52,134.43,134.94,145.56,0.0,vol 6,7.812,130.96241379310345
364272.0,-62.46,-9.1,0.9,2.18,-9.95,-3.59,-3.93,-2.73,-1.74,16.39,99798.52,134.43,134.89,145.56,0.0,vol 6,7.822,130.96241379310345
364282.0,-62.25,-9.24,0.88,3.09,-10.73,-5.01,-3.41,-2.24,-2.0,16.39,99798.52,134.43,134.84,145.56,0.0,vol 6,7.832,130.96241379310345
364292.0,-62.15,-9.28,0.86,3.27,-10.46,-5.66,-2.73,-1.67,-2.27,16.39,99798.52,134.43,134.8,145.56,0.0,vol 6,7.842,130.96241379310345
364302.0,-62.12,-9.27,0.84,2.88,-9.39,-5.44,-1.97,-1.13,-2.43,16.39,99801.2,134.2,134.74,145.56,0.0,vol 6,7.852,130.73241379310343
364312.0,-62.11,-9.25,0.81,2.47,-8.36,-5.05,-1.22,-0.71,-2.45,16.39,99801.2,134.2,134.68,145.56,0.0,vol 6,7.862,130.73241379310343
364322.0,-62.07,-9.26,0.79,2.3,-7.66,-4.81,-0.5,-0.36,-2.37,16.39,99801.2,134.2,134.64,145.56,0.0,vol 6,7.872,130.73241379310343
364332.0,-62.0,-9.32,0.76,2.53,-7.43,-4.93,0.21,-0.06,-2.25,16.39,99801.2,134.2,134.59,145.56,0.0,vol 6,7.882,130.73241379310343
364343.0,-61.87,-9.44,0.74,3.18,-7.63,-5.43,0.97,0.26,-2.13,16.39,99804.66,133.91,134.52,145.56,0.0,vol 6,7.893,130.44241379310344
364353.0,-61.76,-9.57,0.72,3.86,-7.6,-5.61,1.87,0.66,-2.02,16.39,99804.66,133.91,134.46,145.56,0.0,vol 6,7.903,130.44241379310344
364364.0,-61.65,-9.68,0.7,4.33,-7.31,-5.58,2.8,1.05,-1.9,16.39,99804.66,133.91,134.41,145.56,0.0,vol 6,7.914,130.44241379310344
364374.0,-61.56,-9.75,0.68,4.61,-7.06,-5.42,3.67,1.41,-1.77,16.39,99808.68,133.57,134.32,145.56,0.0,vol 6,7.924,130.10241379310344
364384.0,-61.52,-9.83,0.67,4.87,-6.91,-5.01,4.5,1.75,-1.65,16.39,99808.68,133.57,134.25,145.56,0.0,vol 6,7.934,130.10241379310344
364393.0,-61.49,-9.95,0.65,5.39,-7.01,-4.36,5.22,2.05,-1.55,16.39,99808.68,133.57,134.18,145.56,0.0,vol 6,7.943,130.10241379310344
364403.0,-61.46,-10.07,0.64,6.08,-7.3,-3.59,5.74,2.29,-1.53,16.39,99808.68,133.57,134.12,145.56,0.0,vol 6,7.953,130.10241379310344
364413.0,-61.37,-10.22,0.62,6.82,-7.34,-2.6,6.02,2.45,-1.57,16.39,99811.8,133.31,134.04,145.56,0.0,vol 6,7.963,129.84241379310345
364423.0,-61.21,-10.39,0.6,7.6,-7.14,-1.67,6.08,2.51,-1.62,16.39,99811.8,133.31,133.97,145.56,0.0,vol 6,7.973,129.84241379310345
364433.0,-61.0,-10.57,0.59,8.84,-7.11,-0.71,5.95,2.5,-1.67,16.39,99811.8,133.31,133.9,145.56,0.0,vol 6,7.983,129.84241379310345
364443.0,-60.79,-10.7,0.57,10.43,-7.27,0.77,5.48,2.37,-1.76,16.39,99811.8,133.31,133.84,145.56,0.0,vol 6,7.993,129.84241379310345
364454.0,-60.62,-10.76,0.55,11.86,-7.41,2.04,4.66,2.1,-1.89,16.39,99816.16,132.94,133.75,145.56,0.0,vol 6,8.004,129.47241379310344
364464.0,-60.39,-10.87,0.53,13.02,-6.79,3.25,3.55,1.71,-2.01,16.39,99816.16,132.94,133.67,145.56,0.0,vol 6,8.014,129.47241379310344
364474.0,-60.23,-10.95,0.51,13.65,-6.06,3.72,2.32,1.23,-2.02,16.39,99816.16,132.94,133.6,145.56,0.0,vol 6,8.024,129.47241379310344
364483.0,-60.14,-11.0,0.49,13.4,-5.42,3.74,1.14,0.78,-1.95,16.39,99820.84,132.55,133.49,145.56,0.0,vol 6,8.033,129.08241379310346
364493.0,-60.12,-11.01,0.47,12.23,-4.85,3.44,0.08,0.39,-1.83,16.39,99820.84,132.55,133.4,145.56,0.0,vol 6,8.043,129.08241379310346
364503.0,-60.16,-10.99,0.46,10.39,-4.27,2.9,-0.78,0.11,-1.66,16.39,99820.84,132.55,133.31,145.56,0.0,vol 6,8.053,129.08241379310346
364513.0,-60.23,-10.93,0.44,8.37,-3.71,2.38,-1.42,-0.07,-1.45,16.39,99820.84,132.55,133.24,145.56,0.0,vol 6,8.063,129.08241379310346
364523.0,-60.34,-10.85,0.43,6.69,-3.31,1.95,-1.85,-0.15,-1.2,16.39,99826.03,132.11,133.12,145.56,0.0,vol 6,8.073,128.64241379310346
364533.0,-60.46,-10.75,0.42,5.46,-3.03,1.68,-2.15,-0.17,-0.93,16.39,99826.03,132.11,133.02,145.56,0.0,vol 6,8.083,128.64241379310346
364543.0,-60.55,-10.68,0.41,4.77,-2.86,1.56,-2.35,-0.17,-0.64,16.39,99826.03,132.11,132.93,145.56,0.0,vol 6,8.093,128.64241379310346
364553.0,-60.55,-10.69,0.41,4.88,-2.84,1.65,-2.54,-0.18,-0.32,16.39,99826.03,132.11,132.85,145.56,0.0,vol 6,8.103,128.64241379310346
364563.0,-60.39,-10.87,0.41,5.98,-2.81,1.87,-2.75,-0.24,0.01,16.38,99830.66,131.72,132.74,145.56,0.0,vol 6,8.113,128.25241379310344
364573.0,-60.14,-11.11,0.42,7.58,-2.45,2.22,-3.01,-0.41,0.42,16.38,99830.66,131.72,132.63,145.56,0.0,vol 6,8.123,128.25241379310344
364584.0,-60.03,-11.2,0.43,9.08,-2.3,2.74,-3.35,-0.73,0.98,16.38,99830.66,131.72,132.54,145.56,0.0,vol 6,8.134,128.25241379310344
364594.0,-60.17,-11.12,0.44,9.0,-2.74,2.91,-3.79,-1.16,1.49,16.38,99835.17,131.34,132.42,145.56,0.0,vol 6,8.144,127.87241379310343
364604.0,-60.43,-10.96,0.46,8.01,-3.37,2.66,-4.31,-1.65,1.91,16.38,99835.17,131.34,132.31,145.56,0.0,vol 6,8.154,127.87241379310343
364614.0,-60.78,-10.78,0.48,6.3,-3.71,1.87,-4.76,-2.13,2.25,16.38,99835.17,131.34,132.22,145.56,0.0,vol 6,8.164,127.87241379310343
364624.0,-61.22,-10.49,0.51,4.61,-3.86,1.1,-5.03,-2.54,2.56,16.38,99835.17,131.34,132.13,145.56,0.0,vol 6,8.174,127.87241379310343
364634.0,-61.7,-10.15,0.54,3.45,-4.15,0.49,-5.15,-2.93,2.86,16.38,99839.37,130.99,132.01,145.56,0.0,vol 6,8.184,127.52241379310344
364644.0,-62.18,-9.77,0.57,2.53,-4.51,0.01,-5.16,-3.31,3.13,16.38,99839.37,130.99,131.91,145.56,0.0,vol 6,8.194,127.52241379310344
364654.0,-62.58,-9.44,0.6,1.85,-5.0,-0.37,-5.09,-3.7,3.38,16.38,99839.37,130.99,131.82,145.56,0.0,vol 6,8.204,127.52241379310344
364664.0,-62.78,-9.27,0.64,1.58,-5.91,-0.81,-5.01,-4.12,3.57,16.38,99839.37,130.99,131.74,145.56,0.0,vol 6,8.214,127.52241379310344
364674.0,-62.76,-9.3,0.67,2.03,-7.66,-1.58,-4.95,-4.53,3.61,16.38,99842.68,130.71,131.63,145.56,0.0,vol 6,8.224,127.24241379310344
364684.0,-62.66,-9.43,0.71,2.91,-9.42,-2.51,-4.91,-4.9,3.45,16.38,99842.68,130.71,131.54,145.56,0.0,vol 6,8.234,127.24241379310344
364694.0,-62.6,-9.54,0.74,3.73,-10.86,-3.37,-4.8,-5.18,3.14,16.38,99842.68,130.71,131.46,145.56,0.0,vol 6,8.244,127.24241379310344
364704.0,-62.5,-9.61,0.76,4.3,-11.74,-4.63,-4.57,-5.33,2.74,16.38,99842.68,130.47,131.36,145.56,0.0,vol 6,8.254,127.00241379310344
364714.0,-62.37,-9.64,0.79,4.32,-11.56,-6.0,-4.2,-5.31,2.33,16.38,99845.52,130.47,131.27,145.56,0.0,vol 6,8.264,127.00241379310344
364724.0,-62.28,-9.65,0.81,4.04,-11.03,-6.87,-3.82,-5.21,1.96,16.38,99845.52,130.47,131.19,145.56,0.0,vol 6,8.274,127.00241379310344
364733.0,-62.23,-9.6,0.82,3.43,-10.6,-7.5,-3.38,-5.14,1.46,16.38,99845.52,130.47,131.12,145.56,0.0,vol 6,8.283,127.00241379310344
364743.0,-62.17,-9.57,0.83,2.94,-10.08,-7.95,-2.89,-5.06,0.92,16.38,99850.22,130.07,131.01,145.56,0.0,vol 6,8.293,126.60241379310344
364754.0,-62.07,-9.58,0.84,2.66,-9.33,-8.26,-2.27,-4.9,0.42,16.38,99850.22,130.07,130.92,145.56,0.0,vol 6,8.304,126.60241379310344
